Source: Spectrum Viewer

Chart: Pulse Spectrum

Series: 
Wavelength (nm)	S (a.u.)
617.638	0.094324
617.773	0.0928793
617.908	0.0941176
618.043	0.0937049
618.178	0.0939112
618.313	0.094324
618.448	0.0904025
618.583	0.0941176
618.718	0.0941176
618.853	0.0924665
618.988	0.0926729
619.123	0.0970072
619.258	0.0897833
619.394	0.0932921
619.529	0.0959752
619.664	0.096388
619.799	0.0949432
619.934	0.0918473
620.069	0.0926729
620.204	0.0941176
620.339	0.0930857
620.474	0.0899897
620.609	0.0939112
620.744	0.0928793
620.879	0.0947368
621.014	0.0934985
621.149	0.0941176
621.284	0.0947368
621.419	0.0926729
621.554	0.095356
621.689	0.0957688
621.825	0.0922601
621.96	0.0939112
622.095	0.0937049
622.23	0.0961816
622.365	0.0934985
622.5	0.0918473
622.635	0.0918473
622.77	0.0922601
622.905	0.0924665
623.04	0.0930857
623.175	0.0926729
623.31	0.0937049
623.445	0.0899897
623.58	0.0922601
623.715	0.094324
623.85	0.0941176
623.985	0.0949432
624.12	0.0926729
624.255	0.0951496
624.39	0.0961816
624.525	0.0945304
624.661	0.094324
624.796	0.0928793
624.931	0.0955624
625.066	0.0934985
625.201	0.0972136
625.336	0.0916409
625.471	0.0906089
625.606	0.0949432
625.741	0.0932921
625.876	0.0937049
626.011	0.0920537
626.146	0.0910217
626.281	0.0949432
626.416	0.0932921
626.551	0.0941176
626.686	0.0947368
626.821	0.0941176
626.956	0.0932921
627.091	0.0926729
627.226	0.0912281
627.361	0.0947368
627.496	0.09742
627.631	0.0928793
627.766	0.0922601
627.901	0.095356
628.036	0.0910217
628.171	0.0937049
628.307	0.0937049
628.442	0.0939112
628.577	0.0951496
628.712	0.0939112
628.847	0.0937049
628.982	0.096388
629.117	0.0910217
629.252	0.0912281
629.387	0.0926729
629.522	0.0932921
629.657	0.0949432
629.792	0.09742
629.927	0.0968008
630.062	0.0955624
630.197	0.0916409
630.332	0.0910217
630.467	0.0945304
630.602	0.0951496
630.737	0.0955624
630.872	0.0934985
631.007	0.096388
631.142	0.0959752
631.277	0.0897833
631.412	0.0926729
631.547	0.0932921
631.682	0.0955624
631.817	0.0937049
631.952	0.0930857
632.087	0.0934985
632.222	0.0918473
632.357	0.0920537
632.492	0.0937049
632.627	0.0910217
632.762	0.0924665
632.897	0.0939112
633.032	0.0912281
633.167	0.0932921
633.302	0.0955624
633.437	0.0937049
633.572	0.0947368
633.707	0.0910217
633.842	0.0961816
633.978	0.0932921
634.113	0.094324
634.248	0.0920537
634.383	0.0937049
634.518	0.0922601
634.653	0.09742
634.788	0.0937049
634.923	0.0924665
635.058	0.0937049
635.193	0.0930857
635.328	0.0934985
635.463	0.0951496
635.598	0.096388
635.733	0.0939112
635.868	0.0899897
636.003	0.095356
636.138	0.0937049
636.273	0.0970072
636.408	0.0918473
636.543	0.0893705
636.678	0.0918473
636.813	0.095356
636.948	0.0924665
637.083	0.094324
637.218	0.0941176
637.353	0.0908153
637.488	0.095356
637.623	0.0934985
637.758	0.0970072
637.893	0.0937049
638.028	0.0941176
638.163	0.0937049
638.298	0.0959752
638.433	0.0959752
638.568	0.0937049
638.703	0.0926729
638.838	0.0968008
638.973	0.0988648
639.108	0.0914345
639.243	0.095356
639.378	0.0928793
639.513	0.0957688
639.648	0.0947368
639.783	0.094324
639.918	0.0937049
640.053	0.0920537
640.188	0.0937049
640.323	0.0970072
640.458	0.0951496
640.593	0.0947368
640.728	0.0928793
640.863	0.0965944
640.998	0.0945304
641.133	0.0904025
641.268	0.0939112
641.403	0.0955624
641.538	0.0937049
641.673	0.0937049
641.808	0.0949432
641.943	0.0951496
642.078	0.094324
642.213	0.0959752
642.348	0.0926729
642.483	0.0934985
642.618	0.0928793
642.753	0.0922601
642.888	0.0895769
643.023	0.0928793
643.158	0.0945304
643.293	0.0916409
643.428	0.0951496
643.563	0.0941176
643.698	0.09742
643.833	0.0945304
643.968	0.0906089
644.103	0.0972136
644.237	0.0922601
644.372	0.0922601
644.507	0.0955624
644.642	0.0928793
644.777	0.0934985
644.912	0.094324
645.047	0.0910217
645.182	0.095356
645.317	0.0926729
645.452	0.0968008
645.587	0.0922601
645.722	0.0951496
645.857	0.0945304
645.992	0.094324
646.127	0.0934985
646.262	0.0949432
646.397	0.0972136
646.532	0.0934985
646.667	0.0945304
646.802	0.0926729
646.937	0.0947368
647.072	0.0959752
647.207	0.0955624
647.342	0.0939112
647.477	0.0945304
647.612	0.0965944
647.747	0.0922601
647.882	0.0924665
648.017	0.0945304
648.152	0.0937049
648.287	0.0961816
648.422	0.0930857
648.557	0.0947368
648.692	0.0965944
648.827	0.0922601
648.962	0.0951496
649.097	0.094324
649.232	0.0955624
649.367	0.0934985
649.502	0.0947368
649.637	0.0959752
649.772	0.0916409
649.906	0.0955624
650.041	0.0922601
650.176	0.0937049
650.311	0.0920537
650.446	0.0924665
650.581	0.0947368
650.716	0.0939112
650.851	0.0934985
650.986	0.0941176
651.121	0.0941176
651.256	0.0947368
651.391	0.0924665
651.526	0.0912281
651.661	0.0934985
651.796	0.0941176
651.931	0.0906089
652.066	0.0916409
652.201	0.0957688
652.336	0.0930857
652.471	0.0955624
652.606	0.0920537
652.741	0.0934985
652.876	0.0941176
653.011	0.0947368
653.146	0.0951496
653.281	0.0949432
653.415	0.0918473
653.55	0.0914345
653.685	0.0918473
653.82	0.0939112
653.955	0.0918473
654.09	0.0937049
654.225	0.0928793
654.36	0.0926729
654.495	0.0910217
654.63	0.094324
654.765	0.0941176
654.9	0.094324
655.035	0.0972136
655.17	0.09742
655.305	0.094324
655.44	0.0924665
655.575	0.0930857
655.71	0.0932921
655.845	0.0926729
655.98	0.0934985
656.115	0.094324
656.25	0.0918473
656.384	0.0930857
656.519	0.0918473
656.654	0.0939112
656.789	0.0910217
656.924	0.0899897
657.059	0.0918473
657.194	0.0899897
657.329	0.0947368
657.464	0.0934985
657.599	0.0947368
657.734	0.0928793
657.869	0.0928793
658.004	0.0922601
658.139	0.0930857
658.274	0.0961816
658.409	0.0918473
658.544	0.0934985
658.679	0.0941176
658.813	0.0926729
658.948	0.0922601
659.083	0.0945304
659.218	0.094324
659.353	0.0934985
659.488	0.0961816
659.623	0.0957688
659.758	0.0978328
659.893	0.0965944
660.028	0.0939112
660.163	0.0949432
660.298	0.0922601
660.433	0.0928793
660.568	0.0930857
660.703	0.0916409
660.838	0.0912281
660.972	0.0920537
661.107	0.094324
661.242	0.0959752
661.377	0.0945304
661.512	0.0910217
661.647	0.0924665
661.782	0.0972136
661.917	0.0928793
662.052	0.0914345
662.187	0.0937049
662.322	0.0937049
662.457	0.0918473
662.592	0.0945304
662.727	0.0928793
662.862	0.0926729
662.996	0.0968008
663.131	0.0924665
663.266	0.0920537
663.401	0.0939112
663.536	0.0941176
663.671	0.0928793
663.806	0.0949432
663.941	0.0918473
664.076	0.0932921
664.211	0.0939112
664.346	0.0934985
664.481	0.0947368
664.616	0.0904025
664.75	0.0934985
664.885	0.0928793
665.02	0.0922601
665.155	0.0982456
665.29	0.0930857
665.425	0.0922601
665.56	0.095356
665.695	0.0932921
665.83	0.0920537
665.965	0.0928793
666.1	0.0951496
666.235	0.0928793
666.37	0.0914345
666.504	0.0924665
666.639	0.0955624
666.774	0.0916409
666.909	0.0951496
667.044	0.0928793
667.179	0.0920537
667.314	0.0970072
667.449	0.096388
667.584	0.0941176
667.719	0.0961816
667.854	0.0941176
667.989	0.0930857
668.123	0.0924665
668.258	0.0934985
668.393	0.0947368
668.528	0.0930857
668.663	0.0945304
668.798	0.0955624
668.933	0.0932921
669.068	0.094324
669.203	0.0965944
669.338	0.0941176
669.473	0.095356
669.607	0.0906089
669.742	0.095356
669.877	0.0955624
670.012	0.0941176
670.147	0.0949432
670.282	0.0951496
670.417	0.0941176
670.552	0.0887513
670.687	0.0932921
670.822	0.0922601
670.957	0.0932921
671.091	0.0937049
671.226	0.0939112
671.361	0.0914345
671.496	0.094324
671.631	0.0906089
671.766	0.0914345
671.901	0.0895769
672.036	0.0926729
672.171	0.0955624
672.306	0.0920537
672.44	0.0930857
672.575	0.094324
672.71	0.0926729
672.845	0.0937049
672.98	0.094324
673.115	0.0937049
673.25	0.0914345
673.385	0.0934985
673.52	0.0910217
673.655	0.0930857
673.789	0.0932921
673.924	0.0906089
674.059	0.0941176
674.194	0.0937049
674.329	0.0928793
674.464	0.0918473
674.599	0.094324
674.734	0.0959752
674.869	0.0930857
675.003	0.0955624
675.138	0.0934985
675.273	0.0951496
675.408	0.0928793
675.543	0.0901961
675.678	0.0951496
675.813	0.0955624
675.948	0.0901961
676.083	0.0934985
676.217	0.0951496
676.352	0.0924665
676.487	0.0945304
676.622	0.0912281
676.757	0.0939112
676.892	0.0918473
677.027	0.0937049
677.162	0.095356
677.297	0.0924665
677.431	0.0926729
677.566	0.0945304
677.701	0.0945304
677.836	0.095356
677.971	0.0941176
678.106	0.094324
678.241	0.0947368
678.376	0.095356
678.511	0.0941176
678.645	0.0937049
678.78	0.0947368
678.915	0.0906089
679.05	0.0949432
679.185	0.0922601
679.32	0.0930857
679.455	0.0951496
679.59	0.0908153
679.724	0.0945304
679.859	0.0941176
679.994	0.0908153
680.129	0.0947368
680.264	0.0922601
680.399	0.0947368
680.534	0.0924665
680.669	0.0939112
680.803	0.0947368
680.938	0.0928793
681.073	0.0957688
681.208	0.0928793
681.343	0.0926729
681.478	0.0930857
681.613	0.0932921
681.748	0.0910217
681.882	0.0930857
682.017	0.0947368
682.152	0.0928793
682.287	0.0918473
682.422	0.0934985
682.557	0.0959752
682.692	0.094324
682.827	0.0928793
682.961	0.0941176
683.096	0.0949432
683.231	0.0928793
683.366	0.095356
683.501	0.0937049
683.636	0.0949432
683.771	0.0922601
683.906	0.0934985
684.04	0.0945304
684.175	0.0918473
684.31	0.0934985
684.445	0.0947368
684.58	0.0926729
684.715	0.0922601
684.85	0.0957688
684.984	0.0947368
685.119	0.0965944
685.254	0.0926729
685.389	0.0930857
685.524	0.0922601
685.659	0.095356
685.794	0.0949432
685.928	0.0920537
686.063	0.0968008
686.198	0.0932921
686.333	0.0914345
686.468	0.0955624
686.603	0.0922601
686.738	0.0934985
686.872	0.095356
687.007	0.0934985
687.142	0.0899897
687.277	0.0928793
687.412	0.095356
687.547	0.0939112
687.682	0.0926729
687.816	0.0924665
687.951	0.0914345
688.086	0.0961816
688.221	0.0941176
688.356	0.0922601
688.491	0.0970072
688.626	0.0937049
688.76	0.0949432
688.895	0.0924665
689.03	0.0932921
689.165	0.0949432
689.3	0.0965944
689.435	0.0926729
689.57	0.0920537
689.704	0.0949432
689.839	0.0945304
689.974	0.0908153
690.109	0.0926729
690.244	0.0930857
690.379	0.0908153
690.513	0.0930857
690.648	0.0937049
690.783	0.0920537
690.918	0.0961816
691.053	0.0895769
691.188	0.0978328
691.323	0.0934985
691.457	0.0928793
691.592	0.0924665
691.727	0.0951496
691.862	0.0926729
691.997	0.0968008
692.132	0.0941176
692.266	0.0968008
692.401	0.094324
692.536	0.0914345
692.671	0.0926729
692.806	0.0947368
692.941	0.0951496
693.075	0.0904025
693.21	0.0930857
693.345	0.0920537
693.48	0.094324
693.615	0.0939112
693.75	0.0959752
693.885	0.0930857
694.019	0.0930857
694.154	0.0951496
694.289	0.0930857
694.424	0.0941176
694.559	0.0949432
694.694	0.0932921
694.828	0.0932921
694.963	0.0939112
695.098	0.0945304
695.233	0.0939112
695.368	0.0945304
695.503	0.0934985
695.637	0.0924665
695.772	0.0920537
695.907	0.0926729
696.042	0.0945304
696.177	0.095356
696.312	0.094324
696.446	0.0928793
696.581	0.0959752
696.716	0.094324
696.851	0.0918473
696.986	0.0949432
697.12	0.0904025
697.255	0.095356
697.39	0.094324
697.525	0.0949432
697.66	0.0947368
697.795	0.0955624
697.929	0.0928793
698.064	0.0934985
698.199	0.0970072
698.334	0.0937049
698.469	0.0926729
698.604	0.0934985
698.738	0.0939112
698.873	0.0895769
699.008	0.0945304
699.143	0.0930857
699.278	0.0910217
699.412	0.0914345
699.547	0.0924665
699.682	0.0957688
699.817	0.0932921
699.952	0.0922601
700.087	0.0922601
700.221	0.0928793
700.356	0.0934985
700.491	0.0914345
700.626	0.0920537
700.761	0.0972136
700.895	0.0932921
701.03	0.0926729
701.165	0.0930857
701.3	0.0899897
701.435	0.0939112
701.57	0.0978328
701.704	0.0918473
701.839	0.0945304
701.974	0.0922601
702.109	0.0926729
702.244	0.0937049
702.378	0.0939112
702.513	0.0934985
702.648	0.0914345
702.783	0.0947368
702.918	0.0928793
703.052	0.0918473
703.187	0.0980392
703.322	0.0951496
703.457	0.0910217
703.592	0.0941176
703.727	0.0941176
703.861	0.0945304
703.996	0.0939112
704.131	0.094324
704.266	0.0914345
704.401	0.0930857
704.535	0.0937049
704.67	0.0968008
704.805	0.0926729
704.94	0.0924665
705.075	0.0928793
705.209	0.0961816
705.344	0.0899897
705.479	0.0937049
705.614	0.0920537
705.749	0.0939112
705.883	0.095356
706.018	0.0899897
706.153	0.0937049
706.288	0.0947368
706.423	0.096388
706.557	0.0918473
706.692	0.0926729
706.827	0.094324
706.962	0.0918473
707.097	0.0932921
707.231	0.0924665
707.366	0.0937049
707.501	0.0961816
707.636	0.0937049
707.771	0.0932921
707.905	0.0949432
708.04	0.0934985
708.175	0.0934985
708.31	0.0920537
708.445	0.0918473
708.579	0.096388
708.714	0.0947368
708.849	0.0918473
708.984	0.0934985
709.118	0.0908153
709.253	0.094324
709.388	0.0947368
709.523	0.0951496
709.658	0.0926729
709.792	0.0934985
709.927	0.0939112
710.062	0.0941176
710.197	0.0924665
710.332	0.0914345
710.466	0.0955624
710.601	0.095356
710.736	0.0955624
710.871	0.094324
711.006	0.0951496
711.14	0.0934985
711.275	0.0937049
711.41	0.0922601
711.545	0.0934985
711.679	0.0932921
711.814	0.095356
711.949	0.0928793
712.084	0.0951496
712.219	0.0912281
712.353	0.0922601
712.488	0.0908153
712.623	0.0937049
712.758	0.0910217
712.892	0.0941176
713.027	0.0918473
713.162	0.0920537
713.297	0.0951496
713.432	0.094324
713.566	0.0947368
713.701	0.0957688
713.836	0.0926729
713.971	0.0947368
714.105	0.0955624
714.24	0.0934985
714.375	0.0934985
714.51	0.0941176
714.645	0.0932921
714.779	0.0934985
714.914	0.0930857
715.049	0.0939112
715.184	0.0932921
715.318	0.0930857
715.453	0.0941176
715.588	0.0924665
715.723	0.0914345
715.858	0.0945304
715.992	0.0930857
716.127	0.0941176
716.262	0.0934985
716.397	0.0949432
716.531	0.0922601
716.666	0.0916409
716.801	0.0970072
716.936	0.095356
717.07	0.0945304
717.205	0.0949432
717.34	0.0937049
717.475	0.0937049
717.61	0.0932921
717.744	0.0912281
717.879	0.0947368
718.014	0.0939112
718.149	0.09742
718.283	0.0949432
718.418	0.0928793
718.553	0.0914345
718.688	0.0934985
718.822	0.0928793
718.957	0.094324
719.092	0.0934985
719.227	0.0924665
719.361	0.0937049
719.496	0.0920537
719.631	0.0908153
719.766	0.0916409
719.9	0.0955624
720.035	0.0959752
720.17	0.0949432
720.305	0.0930857
720.44	0.0939112
720.574	0.0934985
720.709	0.0932921
720.844	0.0968008
720.979	0.0951496
721.113	0.0930857
721.248	0.0920537
721.383	0.0945304
721.518	0.0939112
721.652	0.0945304
721.787	0.0914345
721.922	0.0922601
722.057	0.0922601
722.191	0.0957688
722.326	0.0930857
722.461	0.0932921
722.596	0.0934985
722.73	0.0924665
722.865	0.0949432
723	0.0891641
723.135	0.0922601
723.269	0.096388
723.404	0.0934985
723.539	0.0949432
723.674	0.0928793
723.808	0.0941176
723.943	0.0926729
724.078	0.0959752
724.213	0.0941176
724.347	0.0968008
724.482	0.0918473
724.617	0.0937049
724.752	0.0939112
724.886	0.0945304
725.021	0.0939112
725.156	0.0961816
725.291	0.0976264
725.425	0.096388
725.56	0.0926729
725.695	0.094324
725.829	0.0945304
725.964	0.0926729
726.099	0.0930857
726.234	0.0939112
726.368	0.095356
726.503	0.0945304
726.638	0.0934985
726.773	0.0937049
726.907	0.0934985
727.042	0.0961816
727.177	0.0941176
727.312	0.0939112
727.446	0.0937049
727.581	0.095356
727.716	0.0934985
727.851	0.0934985
727.985	0.0914345
728.12	0.0908153
728.255	0.0951496
728.389	0.095356
728.524	0.0928793
728.659	0.0924665
728.794	0.0945304
728.928	0.0937049
729.063	0.0930857
729.198	0.0912281
729.333	0.0914345
729.467	0.0916409
729.602	0.0922601
729.737	0.0912281
729.872	0.094324
730.006	0.0916409
730.141	0.095356
730.276	0.0951496
730.41	0.0968008
730.545	0.0965944
730.68	0.0949432
730.815	0.0947368
730.949	0.0914345
731.084	0.0897833
731.219	0.094324
731.354	0.0922601
731.488	0.094324
731.623	0.0922601
731.758	0.0939112
731.892	0.0949432
732.027	0.0908153
732.162	0.094324
732.297	0.0949432
732.431	0.0951496
732.566	0.0965944
732.701	0.0947368
732.835	0.0949432
732.97	0.0972136
733.105	0.0951496
733.24	0.094324
733.374	0.0947368
733.509	0.0955624
733.644	0.0922601
733.779	0.0926729
733.913	0.0951496
734.048	0.0947368
734.183	0.0972136
734.317	0.0941176
734.452	0.0937049
734.587	0.0937049
734.722	0.0939112
734.856	0.0910217
734.991	0.094324
735.126	0.0912281
735.26	0.0932921
735.395	0.0926729
735.53	0.0937049
735.665	0.0922601
735.799	0.0934985
735.934	0.094324
736.069	0.0912281
736.203	0.0920537
736.338	0.0924665
736.473	0.0914345
736.607	0.0920537
736.742	0.09742
736.877	0.0922601
737.012	0.0904025
737.146	0.0930857
737.281	0.095356
737.416	0.0959752
737.55	0.095356
737.685	0.0932921
737.82	0.0937049
737.955	0.095356
738.089	0.0955624
738.224	0.0937049
738.359	0.0928793
738.493	0.0955624
738.628	0.0928793
738.763	0.0912281
738.897	0.0932921
739.032	0.0920537
739.167	0.0961816
739.302	0.0957688
739.436	0.094324
739.571	0.0959752
739.706	0.0939112
739.84	0.0951496
739.975	0.0918473
740.11	0.0934985
740.244	0.094324
740.379	0.0932921
740.514	0.0928793
740.649	0.0961816
740.783	0.0914345
740.918	0.0961816
741.053	0.0934985
741.187	0.0899897
741.322	0.0955624
741.457	0.0934985
741.591	0.0968008
741.726	0.0965944
741.861	0.0951496
741.996	0.0932921
742.13	0.094324
742.265	0.0922601
742.4	0.0939112
742.534	0.0937049
742.669	0.0926729
742.804	0.0934985
742.938	0.0934985
743.073	0.0945304
743.208	0.0922601
743.342	0.0916409
743.477	0.0934985
743.612	0.09742
743.747	0.0926729
743.881	0.0982456
744.016	0.0937049
744.151	0.095356
744.285	0.0945304
744.42	0.094324
744.555	0.0920537
744.689	0.0949432
744.824	0.0930857
744.959	0.0939112
745.093	0.0939112
745.228	0.0932921
745.363	0.0961816
745.497	0.0959752
745.632	0.094324
745.767	0.0926729
745.901	0.0920537
746.036	0.0920537
746.171	0.0926729
746.305	0.0932921
746.44	0.0955624
746.575	0.0928793
746.71	0.0949432
746.844	0.0978328
746.979	0.0945304
747.114	0.0965944
747.248	0.094324
747.383	0.0922601
747.518	0.0947368
747.652	0.0951496
747.787	0.0951496
747.922	0.0916409
748.056	0.0926729
748.191	0.0937049
748.326	0.0934985
748.46	0.0932921
748.595	0.0937049
748.73	0.094324
748.864	0.094324
748.999	0.0932921
749.134	0.0912281
749.268	0.0934985
749.403	0.0922601
749.538	0.0928793
749.672	0.0922601
749.807	0.0924665
749.942	0.0937049
750.076	0.094324
750.211	0.0916409
750.346	0.0922601
750.48	0.094324
750.615	0.0928793
750.75	0.0926729
750.884	0.0922601
751.019	0.0901961
751.154	0.0941176
751.288	0.0945304
751.423	0.0951496
751.558	0.0920537
751.692	0.0951496
751.827	0.0906089
751.962	0.0910217
752.096	0.0934985
752.231	0.0955624
752.366	0.095356
752.5	0.0934985
752.635	0.0934985
752.77	0.095356
752.904	0.0928793
753.039	0.0924665
753.174	0.094324
753.308	0.0947368
753.443	0.0922601
753.578	0.096388
753.712	0.0941176
753.847	0.0908153
753.982	0.0920537
754.116	0.0945304
754.251	0.0932921
754.386	0.0941176
754.52	0.0916409
754.655	0.096388
754.79	0.0937049
754.924	0.0945304
755.059	0.0932921
755.194	0.0930857
755.328	0.0961816
755.463	0.0947368
755.597	0.0945304
755.732	0.0941176
755.867	0.0934985
756.001	0.0961816
756.136	0.094324
756.271	0.0939112
756.405	0.0949432
756.54	0.0912281
756.675	0.0930857
756.809	0.0949432
756.944	0.0947368
757.079	0.0926729
757.213	0.0932921
757.348	0.0955624
757.483	0.0922601
757.617	0.0930857
757.752	0.0957688
757.887	0.0932921
758.021	0.0924665
758.156	0.0968008
758.29	0.0939112
758.425	0.0928793
758.56	0.0926729
758.694	0.0932921
758.829	0.0916409
758.964	0.0932921
759.098	0.0928793
759.233	0.0957688
759.368	0.0918473
759.502	0.0926729
759.637	0.0947368
759.772	0.0947368
759.906	0.0914345
760.041	0.094324
760.175	0.094324
760.31	0.0951496
760.445	0.0970072
760.579	0.0945304
760.714	0.0914345
760.849	0.0908153
760.983	0.0951496
761.118	0.0928793
761.253	0.0939112
761.387	0.0937049
761.522	0.0930857
761.656	0.0959752
761.791	0.0937049
761.926	0.0928793
762.06	0.0939112
762.195	0.0965944
762.33	0.0901961
762.464	0.0934985
762.599	0.095356
762.733	0.0941176
762.868	0.0955624
763.003	0.094324
763.137	0.0912281
763.272	0.095356
763.407	0.0922601
763.541	0.0920537
763.676	0.094324
763.811	0.0945304
763.945	0.0916409
764.08	0.0916409
764.214	0.0951496
764.349	0.0932921
764.484	0.0914345
764.618	0.0934985
764.753	0.0930857
764.888	0.0926729
765.022	0.0916409
765.157	0.0910217
765.291	0.0939112
765.426	0.0945304
765.561	0.0922601
765.695	0.0930857
765.83	0.096388
765.965	0.0949432
766.099	0.0926729
766.234	0.094324
766.368	0.0932921
766.503	0.0918473
766.638	0.0920537
766.772	0.0930857
766.907	0.0918473
767.041	0.0916409
767.176	0.0926729
767.311	0.0930857
767.445	0.0930857
767.58	0.0939112
767.715	0.0945304
767.849	0.0939112
767.984	0.0947368
768.118	0.0937049
768.253	0.0947368
768.388	0.094324
768.522	0.0951496
768.657	0.0934985
768.791	0.0947368
768.926	0.0957688
769.061	0.0941176
769.195	0.0947368
769.33	0.0945304
769.465	0.096388
769.599	0.094324
769.734	0.0965944
769.868	0.0945304
770.003	0.0945304
770.138	0.0912281
770.272	0.0934985
770.407	0.0914345
770.541	0.0922601
770.676	0.0926729
770.811	0.0934985
770.945	0.0945304
771.08	0.0901961
771.214	0.0941176
771.349	0.0970072
771.484	0.0972136
771.618	0.0930857
771.753	0.0928793
771.887	0.0932921
772.022	0.096388
772.157	0.0932921
772.291	0.0930857
772.426	0.0949432
772.56	0.0932921
772.695	0.0928793
772.83	0.0930857
772.964	0.0968008
773.099	0.0939112
773.233	0.0949432
773.368	0.0934985
773.503	0.094324
773.637	0.094324
773.772	0.0941176
773.906	0.094324
774.041	0.0945304
774.176	0.0893705
774.31	0.094324
774.445	0.0924665
774.579	0.0947368
774.714	0.0928793
774.849	0.095356
774.983	0.0937049
775.118	0.0910217
775.252	0.0937049
775.387	0.0930857
775.522	0.0955624
775.656	0.0959752
775.791	0.0934985
775.925	0.0916409
776.06	0.0957688
776.195	0.0924665
776.329	0.0906089
776.464	0.0934985
776.598	0.0918473
776.733	0.096388
776.868	0.0924665
777.002	0.0941176
777.137	0.0932921
777.271	0.0920537
777.406	0.0924665
777.54	0.0928793
777.675	0.0939112
777.81	0.0932921
777.944	0.0951496
778.079	0.0947368
778.213	0.0912281
778.348	0.0928793
778.483	0.0930857
778.617	0.0922601
778.752	0.094324
778.886	0.0932921
779.021	0.0939112
779.155	0.0924665
779.29	0.0951496
779.425	0.0914345
779.559	0.0941176
779.694	0.0951496
779.828	0.0941176
779.963	0.0914345
780.098	0.0928793
780.232	0.0910217
780.367	0.095356
780.501	0.0926729
780.636	0.0924665
780.77	0.094324
780.905	0.0932921
781.04	0.0930857
781.174	0.0932921
781.309	0.0928793
781.443	0.0920537
781.578	0.0949432
781.712	0.0932921
781.847	0.09742
781.982	0.0961816
782.116	0.0955624
782.251	0.0928793
782.385	0.0941176
782.52	0.0926729
782.654	0.0932921
782.789	0.094324
782.924	0.0934985
783.058	0.0972136
783.193	0.0930857
783.327	0.09742
783.462	0.0920537
783.596	0.0937049
783.731	0.0939112
783.866	0.0932921
784	0.095356
784.135	0.0920537
784.269	0.0961816
784.404	0.0922601
784.538	0.0928793
784.673	0.0928793
784.808	0.0889577
784.942	0.0951496
785.077	0.0920537
785.211	0.095356
785.346	0.0934985
785.48	0.0945304
785.615	0.0924665
785.75	0.0941176
785.884	0.094324
786.019	0.0926729
786.153	0.0949432
786.288	0.0916409
786.422	0.0928793
786.557	0.0961816
786.691	0.0937049
786.826	0.0901961
786.961	0.0924665
787.095	0.0910217
787.23	0.0941176
787.364	0.0926729
787.499	0.0947368
787.633	0.0922601
787.768	0.095356
787.902	0.0947368
788.037	0.0914345
788.172	0.0926729
788.306	0.0934985
788.441	0.0926729
788.575	0.0939112
788.71	0.0951496
788.844	0.0939112
788.979	0.0926729
789.113	0.0945304
789.248	0.0912281
789.383	0.0990712
789.517	0.0930857
789.652	0.0941176
789.786	0.0947368
789.921	0.0949432
790.055	0.0939112
790.19	0.0928793
790.324	0.0928793
790.459	0.0939112
790.594	0.095356
790.728	0.0934985
790.863	0.0939112
790.997	0.0920537
791.132	0.0901961
791.266	0.0949432
791.401	0.0926729
791.535	0.094324
791.67	0.0926729
791.804	0.0949432
791.939	0.0957688
792.074	0.0937049
792.208	0.0924665
792.343	0.0932921
792.477	0.0914345
792.612	0.0916409
792.746	0.0941176
792.881	0.0957688
793.015	0.0932921
793.15	0.0939112
793.284	0.0934985
793.419	0.095356
793.553	0.0926729
793.688	0.0934985
793.823	0.0930857
793.957	0.0926729
794.092	0.0926729
794.226	0.0945304
794.361	0.0930857
794.495	0.0961816
794.63	0.0947368
794.764	0.0957688
794.899	0.0918473
795.033	0.0937049
795.168	0.094324
795.302	0.0955624
795.437	0.0916409
795.572	0.094324
795.706	0.0924665
795.841	0.0951496
795.975	0.0889577
796.11	0.0941176
796.244	0.0918473
796.379	0.0939112
796.513	0.0916409
796.648	0.0930857
796.782	0.0951496
796.917	0.0972136
797.051	0.0937049
797.186	0.094324
797.32	0.0928793
797.455	0.0939112
797.589	0.0949432
797.724	0.094324
797.859	0.0918473
797.993	0.0937049
798.128	0.0912281
798.262	0.0949432
798.397	0.094324
798.531	0.0976264
798.666	0.0926729
798.8	0.0934985
798.935	0.0932921
799.069	0.0920537
799.204	0.0906089
799.338	0.0932921
799.473	0.0941176
799.607	0.0957688
799.742	0.0930857
799.876	0.0928793
800.011	0.0961816
800.145	0.0945304
800.28	0.0918473
800.414	0.0934985
800.549	0.095356
800.683	0.0947368
800.818	0.096388
800.953	0.0939112
801.087	0.0976264
801.222	0.0949432
801.356	0.0939112
801.491	0.0937049
801.625	0.0939112
801.76	0.0932921
801.894	0.0928793
802.029	0.0965944
802.163	0.095356
802.298	0.095356
802.432	0.0922601
802.567	0.0941176
802.701	0.0937049
802.836	0.0939112
802.97	0.0934985
803.105	0.0926729
803.239	0.096388
803.374	0.0955624
803.508	0.094324
803.643	0.0939112
803.777	0.0941176
803.912	0.0951496
804.046	0.0914345
804.181	0.0955624
804.315	0.0926729
804.45	0.0945304
804.584	0.094324
804.719	0.0941176
804.853	0.0945304
804.988	0.0937049
805.122	0.094324
805.257	0.0945304
805.391	0.0920537
805.526	0.0934985
805.66	0.0920537
805.795	0.0932921
805.929	0.0930857
806.064	0.0937049
806.198	0.0951496
806.333	0.0947368
806.467	0.0937049
806.602	0.0970072
806.736	0.0955624
806.871	0.0965944
807.005	0.0934985
807.14	0.0941176
807.274	0.0922601
807.409	0.0930857
807.543	0.0941176
807.678	0.0955624
807.812	0.096388
807.947	0.0951496
808.081	0.0959752
808.216	0.0949432
808.35	0.0976264
808.485	0.0930857
808.619	0.0970072
808.754	0.0961816
808.888	0.0976264
809.023	0.0937049
809.157	0.0957688
809.292	0.0912281
809.426	0.0947368
809.561	0.0947368
809.695	0.0955624
809.83	0.0961816
809.964	0.096388
810.099	0.0945304
810.233	0.095356
810.368	0.0972136
810.502	0.0955624
810.637	0.098452
810.771	0.096388
810.906	0.0992776
811.04	0.0955624
811.175	0.0998968
811.309	0.095356
811.444	0.0972136
811.578	0.0986584
811.713	0.0949432
811.847	0.0988648
811.982	0.0982456
812.116	0.100722
812.251	0.0959752
812.385	0.100516
812.519	0.102167
812.654	0.107534
812.788	0.10485
812.923	0.100722
813.057	0.103406
813.192	0.105263
813.326	0.109598
813.461	0.114138
813.595	0.119298
813.73	0.146956
813.864	0.279876
813.999	0.404334
814.133	0.5387
814.268	0.903818
814.402	0.911249
814.537	0.435913
814.671	0.444995
814.806	0.669556
814.94	0.625387
815.075	0.329205
815.209	0.176058
815.344	0.220433
815.478	0.541383
815.612	1
815.747	0.729825
815.881	0.269763
816.016	0.115996
816.15	0.105057
816.285	0.104025
816.419	0.0988648
816.554	0.101135
816.688	0.0961816
816.823	0.10031
816.957	0.0996904
817.092	0.0949432
817.226	0.0982456
817.361	0.0955624
817.495	0.0968008
817.63	0.0972136
817.764	0.0949432
817.898	0.095356
818.033	0.0978328
818.167	0.096388
818.302	0.09742
818.436	0.0941176
818.571	0.0957688
818.705	0.0951496
818.84	0.0961816
818.974	0.0980392
819.109	0.0926729
819.243	0.0965944
819.378	0.0947368
819.512	0.0978328
819.646	0.0961816
819.781	0.0926729
819.915	0.0920537
820.05	0.0926729
820.184	0.0957688
820.319	0.0934985
820.453	0.095356
820.588	0.0924665
820.722	0.0930857
820.857	0.094324
820.991	0.096388
821.126	0.0934985
821.26	0.0926729
821.394	0.0937049
821.529	0.0970072
821.663	0.0941176
821.798	0.0951496
821.932	0.0930857
822.067	0.0955624
822.201	0.095356
822.336	0.0926729
822.47	0.0941176
822.605	0.0924665
822.739	0.0945304
822.873	0.0920537
823.008	0.0922601
823.142	0.0926729
823.277	0.0945304
823.411	0.0937049
823.546	0.0926729
823.68	0.0932921
823.815	0.0922601
823.949	0.0941176
824.083	0.0928793
824.218	0.0934985
824.352	0.0924665
824.487	0.0930857
824.621	0.0908153
824.756	0.0920537
824.89	0.0926729
825.025	0.0922601
825.159	0.0947368
825.293	0.0941176
825.428	0.0934985
825.562	0.0928793
825.697	0.0922601
825.831	0.0961816
825.966	0.0922601
826.1	0.0934985
826.235	0.0949432
826.369	0.095356
826.503	0.0947368
826.638	0.0901961
826.772	0.0939112
826.907	0.0934985
827.041	0.0941176
827.176	0.0924665
827.31	0.0912281
827.445	0.0928793
827.579	0.0926729
827.713	0.0920537
827.848	0.0955624
827.982	0.0945304
828.117	0.0941176
828.251	0.0949432
828.386	0.0914345
828.52	0.0932921
828.654	0.0949432
828.789	0.094324
828.923	0.0947368
829.058	0.0949432
829.192	0.098452
829.327	0.0901961
829.461	0.095356
829.596	0.0926729
829.73	0.0945304
829.864	0.0920537
829.999	0.0930857
830.133	0.0928793
830.268	0.0937049
830.402	0.0947368
830.537	0.0959752
830.671	0.0916409
830.805	0.0934985
830.94	0.0941176
831.074	0.0937049
831.209	0.0941176
831.343	0.0937049
831.478	0.0939112
831.612	0.0945304
831.746	0.0924665
831.881	0.0951496
832.015	0.0949432
832.15	0.0914345
832.284	0.0920537
832.418	0.0908153
832.553	0.0945304
832.687	0.09742
832.822	0.0949432
832.956	0.0916409
833.091	0.0928793
833.225	0.0937049
833.359	0.0937049
833.494	0.0941176
833.628	0.0930857
833.763	0.0941176
833.897	0.0906089
834.032	0.0934985
834.166	0.0934985
834.3	0.0926729
834.435	0.0934985
834.569	0.0930857
834.704	0.0949432
834.838	0.0934985
834.972	0.0951496
835.107	0.0978328
835.241	0.095356
835.376	0.0928793
835.51	0.0922601
835.645	0.0947368
835.779	0.0961816
835.913	0.0920537
836.048	0.0937049
836.182	0.0932921
836.317	0.0930857
836.451	0.0939112
836.585	0.0930857
836.72	0.0959752
836.854	0.0947368
836.989	0.0951496
837.123	0.0961816
837.257	0.0934985
837.392	0.0934985
837.526	0.0930857
837.661	0.0937049
837.795	0.095356
837.929	0.0939112
838.064	0.0922601
838.198	0.0955624
838.333	0.0947368
838.467	0.0939112
838.602	0.0908153
838.736	0.0949432
838.87	0.0951496
839.005	0.0941176
839.139	0.0916409
839.274	0.0916409
839.408	0.0939112
839.542	0.0934985
839.677	0.0937049
839.811	0.0961816
839.946	0.0939112
840.08	0.0939112
840.214	0.0934985
840.349	0.0930857
840.483	0.0941176
840.618	0.0972136
840.752	0.0937049
840.886	0.096388
841.021	0.0959752
841.155	0.0908153
841.29	0.0930857
841.424	0.0926729
841.558	0.0930857
841.693	0.0908153
841.827	0.0970072
841.961	0.094324
842.096	0.0932921
842.23	0.0926729
842.365	0.0945304
842.499	0.094324
842.633	0.0910217
842.768	0.0939112
842.902	0.0914345
843.037	0.0922601
843.171	0.0928793
843.305	0.095356
843.44	0.0928793
843.574	0.0918473
843.709	0.0914345
843.843	0.0920537
843.977	0.0932921
844.112	0.0937049
844.246	0.0930857
844.381	0.0928793
844.515	0.0924665
844.649	0.0924665
844.784	0.0951496
844.918	0.0957688
845.052	0.0930857
845.187	0.0951496
845.321	0.0912281
845.456	0.0955624
845.59	0.0947368
845.724	0.0916409
845.859	0.0937049
845.993	0.0930857
846.128	0.0951496
846.262	0.0914345
846.396	0.0924665
846.531	0.0932921
846.665	0.0912281
846.799	0.0939112
846.934	0.0934985
847.068	0.0926729
847.203	0.0965944
847.337	0.0928793
847.471	0.0924665
847.606	0.0951496
847.74	0.094324
847.874	0.0951496
848.009	0.0941176
848.143	0.0897833
848.278	0.0926729
848.412	0.0928793
848.546	0.0941176
848.681	0.0955624
848.815	0.0928793
848.949	0.0947368
849.084	0.0959752
849.218	0.0945304
849.353	0.0941176
849.487	0.0928793
849.621	0.0961816
849.756	0.0910217
849.89	0.0930857
850.024	0.094324
850.159	0.094324
850.293	0.0924665
850.428	0.0932921
850.562	0.0932921
850.696	0.0945304
850.831	0.0937049
850.965	0.0941176
851.099	0.0939112
851.234	0.0937049
851.368	0.0928793
851.502	0.0941176
851.637	0.0934985
851.771	0.0941176
851.906	0.0941176
852.04	0.0934985
852.174	0.0949432
852.309	0.0951496
852.443	0.0924665
852.577	0.094324
852.712	0.0937049
852.846	0.0918473
852.98	0.0912281
853.115	0.0937049
853.249	0.0955624
853.384	0.0945304
853.518	0.0924665
853.652	0.0937049
853.787	0.0932921
853.921	0.095356
854.055	0.0920537
854.19	0.0949432
854.324	0.0945304
854.458	0.0959752
854.593	0.0920537
854.727	0.0970072
854.861	0.0928793
854.996	0.0941176
855.13	0.0951496
855.265	0.0951496
855.399	0.0932921
855.533	0.0926729
855.668	0.0922601
855.802	0.0947368
855.936	0.0920537
856.071	0.0908153
856.205	0.0951496
856.339	0.0928793
856.474	0.0961816
856.608	0.0955624
856.742	0.0982456
856.877	0.0930857
857.011	0.0934985
857.145	0.0920537
857.28	0.0930857
857.414	0.0934985
857.549	0.095356
857.683	0.0947368
857.817	0.09742
857.952	0.0924665
858.086	0.0924665
858.22	0.0918473
858.355	0.0904025
858.489	0.0934985
858.623	0.0918473
858.758	0.0934985
858.892	0.0920537
859.026	0.0910217
859.161	0.0920537
859.295	0.0945304
859.429	0.0959752
859.564	0.0947368
859.698	0.0932921
859.832	0.0924665
859.967	0.0947368
860.101	0.0937049
860.235	0.0965944
860.37	0.0930857
860.504	0.0947368
860.638	0.0947368
860.773	0.0934985
860.907	0.0932921
861.041	0.0939112
861.176	0.094324
861.31	0.0926729
861.444	0.0908153
861.579	0.0939112
861.713	0.0947368
861.847	0.0937049
861.982	0.0926729
862.116	0.095356
862.25	0.0937049
862.385	0.095356
862.519	0.0970072
862.653	0.0928793
862.788	0.0955624
862.922	0.0941176
863.056	0.0957688
863.191	0.0945304
863.325	0.0941176
863.459	0.0901961
863.594	0.094324
863.728	0.096388
863.862	0.095356
863.997	0.0926729
864.131	0.0949432
864.265	0.0930857
864.4	0.0968008
864.534	0.095356
864.668	0.096388
864.803	0.0945304
864.937	0.0937049
865.071	0.0939112
865.206	0.0916409
865.34	0.0920537
865.474	0.0945304
865.609	0.0930857
865.743	0.094324
865.877	0.0914345
866.012	0.0918473
866.146	0.0934985
866.28	0.0945304
866.415	0.0914345
866.549	0.0912281
866.683	0.0945304
866.818	0.095356
866.952	0.0937049
867.086	0.0947368
867.221	0.0926729
867.355	0.095356
867.489	0.0968008
867.623	0.0951496
867.758	0.0928793
867.892	0.0947368
868.026	0.0941176
868.161	0.0934985
868.295	0.0906089
868.429	0.0908153
868.564	0.0937049
868.698	0.0939112
868.832	0.0930857
868.967	0.0920537
869.101	0.0934985
869.235	0.0934985
869.37	0.0945304
869.504	0.0951496
869.638	0.0920537
869.773	0.0959752
869.907	0.0934985
870.041	0.0941176
870.175	0.0930857
870.31	0.0939112
870.444	0.0937049
870.578	0.0916409
870.713	0.0951496
870.847	0.0945304
870.981	0.0945304
871.116	0.0930857
871.25	0.0922601
871.384	0.0922601
871.519	0.0947368
871.653	0.0910217
871.787	0.0932921
871.921	0.0957688
872.056	0.0920537
872.19	0.0947368
872.324	0.0937049
872.459	0.0941176
872.593	0.0932921
872.727	0.0932921
872.862	0.0955624
872.996	0.095356
873.13	0.0930857
873.264	0.0961816
873.399	0.0937049
873.533	0.0928793
873.667	0.0932921
873.802	0.094324
873.936	0.0924665
874.07	0.0926729
874.205	0.0941176
874.339	0.0951496
874.473	0.0941176
874.607	0.0939112
874.742	0.0937049
874.876	0.096388
875.01	0.0910217
875.145	0.0949432
875.279	0.0930857
875.413	0.0904025
875.548	0.0912281
875.682	0.0932921
875.816	0.096388
875.95	0.096388
876.085	0.094324
876.219	0.0912281
876.353	0.0937049
876.488	0.0926729
876.622	0.0947368
876.756	0.0945304
876.89	0.0978328
877.025	0.0918473
877.159	0.0916409
877.293	0.0945304
877.428	0.0916409
877.562	0.0947368
877.696	0.0951496
877.83	0.0920537
877.965	0.0939112
878.099	0.0959752
878.233	0.0939112
878.368	0.0951496
878.502	0.0908153
878.636	0.0908153
878.77	0.0932921
878.905	0.0939112
879.039	0.094324
879.173	0.09742
879.308	0.0951496
879.442	0.095356
879.576	0.0914345
879.71	0.0957688
879.845	0.094324
879.979	0.0934985
880.113	0.0920537
880.248	0.0939112
880.382	0.0947368
880.516	0.0947368
880.65	0.0947368
880.785	0.0930857
880.919	0.0928793
881.053	0.0934985
881.188	0.0945304
881.322	0.0951496
881.456	0.096388
881.59	0.0932921
881.725	0.0951496
881.859	0.0928793
881.993	0.0978328
882.127	0.0955624
882.262	0.0939112
882.396	0.0922601
882.53	0.0951496
882.665	0.0934985
882.799	0.0934985
882.933	0.0930857
883.067	0.0949432
883.202	0.0949432
883.336	0.0959752
883.47	0.0918473
883.604	0.0959752
883.739	0.095356
883.873	0.094324
884.007	0.0901961
884.142	0.0914345
884.276	0.0947368
884.41	0.0904025
884.544	0.0928793
884.679	0.094324
884.813	0.094324
884.947	0.0930857
885.081	0.0912281
885.216	0.0920537
885.35	0.0926729
885.484	0.0937049
885.618	0.0941176
885.753	0.0916409
885.887	0.0928793
886.021	0.0959752
886.155	0.0945304
886.29	0.0970072
886.424	0.0972136
886.558	0.0920537
886.693	0.0930857
886.827	0.0945304
886.961	0.0941176
887.095	0.0980392
887.23	0.0968008
887.364	0.0910217
887.498	0.0926729
887.632	0.0947368
887.767	0.0945304
887.901	0.0939112
888.035	0.0932921
888.169	0.0937049
888.304	0.0939112
888.438	0.0937049
888.572	0.0922601
888.706	0.094324
888.841	0.0922601
888.975	0.0926729
889.109	0.0928793
889.243	0.0945304
889.378	0.0955624
889.512	0.0928793
889.646	0.0920537
889.78	0.0932921
889.915	0.0949432
890.049	0.0930857
890.183	0.0912281
890.317	0.0957688
890.452	0.0947368
890.586	0.095356
890.72	0.094324
890.854	0.0926729
890.989	0.094324
891.123	0.0932921
891.257	0.0906089
891.391	0.0934985
891.526	0.0914345
891.66	0.0934985
891.794	0.0928793
891.928	0.0924665
892.063	0.0910217
892.197	0.0939112
892.331	0.0947368
892.465	0.0916409
892.6	0.094324
892.734	0.0918473
892.868	0.0918473
893.002	0.0916409
893.137	0.0932921
893.271	0.0928793
893.405	0.0941176
893.539	0.0934985
893.674	0.094324
893.808	0.0941176
893.942	0.0937049
894.076	0.0901961
894.21	0.0951496
894.345	0.0957688
894.479	0.0912281
894.613	0.0928793
894.747	0.0922601
894.882	0.0926729
895.016	0.0928793
895.15	0.0937049
895.284	0.0941176
895.419	0.0937049
895.553	0.0934985
895.687	0.0937049
895.821	0.0937049
895.956	0.0949432
896.09	0.0934985
896.224	0.0932921
896.358	0.0941176
896.492	0.0939112
896.627	0.0926729
896.761	0.0951496
896.895	0.0897833
897.029	0.0908153
897.164	0.0949432
897.298	0.0926729
897.432	0.0932921
897.566	0.0920537
897.701	0.0951496
897.835	0.0939112
897.969	0.0949432
898.103	0.0918473
898.237	0.0968008
898.372	0.0918473
898.506	0.0939112
898.64	0.0951496
898.774	0.0959752
898.909	0.0918473
899.043	0.0930857
899.177	0.0932921
899.311	0.0916409
899.445	0.0922601
899.58	0.0924665
899.714	0.0910217
899.848	0.0949432
899.982	0.095356
900.117	0.0918473
900.251	0.0951496
900.385	0.0945304
900.519	0.0941176
900.653	0.0957688
900.788	0.0928793
900.922	0.0930857
901.056	0.0939112
901.19	0.0968008
901.325	0.0912281
901.459	0.0928793
901.593	0.0910217
901.727	0.095356
901.861	0.0937049
901.996	0.0968008
902.13	0.0932921
902.264	0.0947368
902.398	0.0939112
902.532	0.0959752
902.667	0.0916409
902.801	0.0930857
902.935	0.0976264
903.069	0.0941176
903.204	0.0932921
903.338	0.094324
903.472	0.0959752
903.606	0.0924665
903.74	0.0908153
903.875	0.0957688
904.009	0.0961816
904.143	0.0930857
904.277	0.0957688
904.411	0.0939112
904.546	0.0959752
904.68	0.0945304
904.814	0.0932921
904.948	0.0930857
905.082	0.0941176
905.217	0.0941176
905.351	0.0937049
905.485	0.0945304
905.619	0.0930857
905.753	0.0947368
905.888	0.094324
906.022	0.0932921
906.156	0.0932921
906.29	0.0939112
906.424	0.0941176
906.559	0.0930857
906.693	0.0916409
906.827	0.0957688
906.961	0.0930857
907.095	0.0941176
907.23	0.0912281
907.364	0.0937049
907.498	0.0947368
907.632	0.0922601
907.766	0.0945304
907.901	0.0926729
908.035	0.0934985
908.169	0.0934985
908.303	0.0937049
908.437	0.0930857
908.572	0.0961816
908.706	0.0918473
908.84	0.0918473
908.974	0.096388
909.108	0.0912281
909.243	0.0939112
909.377	0.0912281
909.511	0.0951496
909.645	0.0947368
909.779	0.0939112
909.914	0.0947368
910.048	0.094324
910.182	0.0947368
910.316	0.0957688
910.45	0.0949432
910.585	0.0937049
910.719	0.0939112
910.853	0.0934985
910.987	0.0920537
911.121	0.0937049
911.255	0.0957688
911.39	0.0945304
911.524	0.0930857
911.658	0.0939112
911.792	0.0961816
911.926	0.0951496
912.061	0.0930857
912.195	0.0932921
912.329	0.0945304
912.463	0.0955624
912.597	0.0912281
912.732	0.0934985
912.866	0.0926729
913	0.0937049
913.134	0.0947368
913.268	0.0914345
913.402	0.0928793
913.537	0.0961816
913.671	0.0934985
913.805	0.094324
913.939	0.0937049
914.073	0.094324
914.208	0.0926729
914.342	0.0934985
914.476	0.0955624
914.61	0.0918473
914.744	0.0934985
914.878	0.0949432
915.013	0.0918473
915.147	0.094324
915.281	0.0951496
915.415	0.0945304
915.549	0.0920537
915.683	0.0932921
915.818	0.0939112
915.952	0.0934985
916.086	0.0957688
916.22	0.0926729
916.354	0.0928793
916.488	0.0939112
916.623	0.0922601
916.757	0.0951496
916.891	0.0941176
917.025	0.0930857
917.159	0.0955624
917.293	0.0949432
917.428	0.0926729
917.562	0.0922601
917.696	0.0930857
917.83	0.0951496
917.964	0.0916409
918.098	0.0959752
918.233	0.0926729
918.367	0.095356
918.501	0.0926729
918.635	0.0920537
918.769	0.0914345
918.903	0.0920537
919.038	0.0949432
919.172	0.0926729
919.306	0.0904025
919.44	0.0947368
919.574	0.0906089
919.708	0.0968008
919.843	0.095356
919.977	0.0947368
920.111	0.0959752
920.245	0.0924665
920.379	0.094324
920.513	0.0949432
920.648	0.0932921
920.782	0.0922601
920.916	0.0930857
921.05	0.0928793
921.184	0.095356
921.318	0.0930857
921.453	0.0901961
921.587	0.094324
921.721	0.0924665
921.855	0.0918473
921.989	0.095356
922.123	0.094324
922.257	0.0951496
922.392	0.0934985
922.526	0.0951496
922.66	0.0922601
922.794	0.0914345
922.928	0.0926729
923.062	0.0955624
923.197	0.0939112
923.331	0.0939112
923.465	0.0939112
923.599	0.0957688
923.733	0.0928793
923.867	0.0908153
924.001	0.0949432
924.136	0.0947368
924.27	0.0961816
924.404	0.0934985
924.538	0.0899897
924.672	0.0947368
924.806	0.0932921
924.94	0.0914345
925.075	0.0955624
925.209	0.0949432
925.343	0.0961816
925.477	0.0930857
925.611	0.0926729
925.745	0.0926729
925.879	0.0955624
926.014	0.0937049
926.148	0.0951496
926.282	0.0955624
926.416	0.0922601
926.55	0.0945304
926.684	0.0922601
926.818	0.0928793
926.953	0.095356
927.087	0.0924665
927.221	0.0949432
927.355	0.0924665
927.489	0.0939112
927.623	0.094324
927.757	0.0959752
927.892	0.0937049
928.026	0.0912281
928.16	0.0914345
928.294	0.0928793
928.428	0.0934985
928.562	0.0957688
928.696	0.0930857
928.831	0.0949432
928.965	0.0924665
929.099	0.0908153
929.233	0.0906089
929.367	0.095356
929.501	0.0918473
929.635	0.0968008
929.769	0.0949432
929.904	0.0924665
930.038	0.0926729
930.172	0.0970072
930.306	0.0939112
930.44	0.0932921
930.574	0.0947368
930.708	0.0918473
930.843	0.0924665
930.977	0.094324
931.111	0.0912281
931.245	0.0924665
931.379	0.0939112
931.513	0.096388
931.647	0.095356
931.781	0.0928793
931.916	0.0926729
932.05	0.0947368
932.184	0.0939112
932.318	0.094324
932.452	0.096388
932.586	0.094324
932.72	0.0949432
932.854	0.0947368
932.989	0.0941176
933.123	0.095356
933.257	0.0920537
933.391	0.0959752
933.525	0.0916409
933.659	0.0910217
933.793	0.0955624
933.927	0.0937049
934.061	0.0899897
934.196	0.0937049
934.33	0.0916409
934.464	0.0949432
934.598	0.0945304
934.732	0.0912281
934.866	0.0945304
935	0.0941176
935.134	0.0941176
935.269	0.0924665
935.403	0.0965944
935.537	0.0924665
935.671	0.0928793
935.805	0.0937049
935.939	0.0961816
936.073	0.0957688
936.207	0.0939112
936.341	0.095356
936.476	0.0924665
936.61	0.0961816
936.744	0.0922601
936.878	0.0932921
937.012	0.0920537
937.146	0.0891641
937.28	0.0941176
937.414	0.0947368
937.548	0.0934985
937.683	0.0961816
937.817	0.0955624
937.951	0.0932921
938.085	0.0939112
938.219	0.095356
938.353	0.0937049
938.487	0.0928793
938.621	0.0955624
938.755	0.09742
938.889	0.0908153
939.024	0.0926729
939.158	0.0928793
939.292	0.0949432
939.426	0.0937049
939.56	0.0928793
939.694	0.0920537
939.828	0.0941176
939.962	0.0976264
940.096	0.0934985
940.231	0.0949432
940.365	0.0932921
940.499	0.0926729
940.633	0.0941176
940.767	0.0914345
940.901	0.0955624
941.035	0.0934985
941.169	0.0939112
941.303	0.0897833
941.437	0.0912281
941.571	0.0945304
941.706	0.0906089
941.84	0.0939112
941.974	0.0922601
942.108	0.0951496
942.242	0.0955624
942.376	0.0932921
942.51	0.0914345
942.644	0.0918473
942.778	0.0920537
942.912	0.0916409
943.047	0.0910217
943.181	0.0914345
943.315	0.0932921
943.449	0.0937049
943.583	0.0945304
943.717	0.0939112
943.851	0.0906089
943.985	0.0937049
944.119	0.0937049
944.253	0.0939112
944.387	0.0970072
944.522	0.0926729
944.656	0.0959752
944.79	0.095356
944.924	0.094324
945.058	0.0924665
945.192	0.094324
945.326	0.0941176
945.46	0.0941176
945.594	0.0965944
945.728	0.0955624
945.862	0.0959752
945.996	0.0920537
946.131	0.0897833
946.265	0.0926729
946.399	0.0928793
946.533	0.0928793
946.667	0.0930857
946.801	0.0928793
946.935	0.0947368
947.069	0.0941176
947.203	0.0924665
947.337	0.0932921
947.471	0.094324
947.605	0.0955624
947.739	0.0934985
947.874	0.094324
948.008	0.0920537
948.142	0.0932921
948.276	0.0897833
948.41	0.0932921
948.544	0.0949432
948.678	0.0934985
948.812	0.0934985
948.946	0.0949432
949.08	0.0891641
949.214	0.0955624
949.348	0.0939112
949.482	0.0926729
949.617	0.0941176
949.751	0.0965944
949.885	0.0961816
950.019	0.0930857
950.153	0.0939112
950.287	0.0928793
950.421	0.0918473
950.555	0.0932921
950.689	0.0912281
950.823	0.0932921
950.957	0.0945304
951.091	0.0924665
951.225	0.0959752
951.359	0.0939112
951.493	0.0914345
951.628	0.0941176
951.762	0.094324
951.896	0.0949432
952.03	0.0934985
952.164	0.0928793
952.298	0.0922601
952.432	0.0957688
952.566	0.0928793
952.7	0.0957688
952.834	0.0906089
952.968	0.0932921
953.102	0.0922601
953.236	0.0932921
953.37	0.096388
953.504	0.0932921
953.639	0.0930857
953.773	0.0957688
953.907	0.0932921
954.041	0.0928793
954.175	0.0949432
954.309	0.0926729
954.443	0.0932921
954.577	0.095356
954.711	0.0916409
954.845	0.0937049
954.979	0.0924665
955.113	0.0932921
955.247	0.0928793
955.381	0.0937049
955.515	0.0947368
955.649	0.0951496
955.783	0.0937049
955.917	0.0945304
956.052	0.0928793
956.186	0.094324
956.32	0.094324
956.454	0.0945304
956.588	0.0945304
956.722	0.0932921
956.856	0.0910217
956.99	0.0965944
957.124	0.0916409
957.258	0.095356
957.392	0.0916409
957.526	0.0941176
957.66	0.0957688
957.794	0.0949432
957.928	0.0951496
958.062	0.0932921
958.196	0.0904025
958.33	0.0926729
958.464	0.0941176
958.598	0.0928793
958.733	0.0904025
958.867	0.0945304
959.001	0.0924665
959.135	0.0928793
959.269	0.0939112
959.403	0.0941176
959.537	0.0939112
959.671	0.0916409
959.805	0.0914345
959.939	0.0928793
960.073	0.094324
960.207	0.0934985
960.341	0.0957688
960.475	0.0945304
960.609	0.0908153
960.743	0.0920537
960.877	0.095356
961.011	0.0957688
961.145	0.0928793
961.279	0.0914345
961.413	0.0906089
961.547	0.0937049
961.681	0.0932921
961.815	0.0941176
961.949	0.0922601
962.083	0.0949432
962.218	0.0928793
962.352	0.0941176
962.486	0.0910217
962.62	0.0934985
962.754	0.0941176
962.888	0.0932921
963.022	0.0945304
963.156	0.0937049
963.29	0.0934985
963.424	0.0945304
963.558	0.0937049
963.692	0.0932921
963.826	0.0934985
963.96	0.0939112
964.094	0.0918473
964.228	0.0930857
964.362	0.0924665
964.496	0.0928793
964.63	0.0922601
964.764	0.0959752
964.898	0.0947368
965.032	0.0937049
965.166	0.0947368
965.3	0.0910217
965.434	0.0945304
965.568	0.0949432
965.702	0.0947368
965.836	0.0930857
965.97	0.0928793
966.104	0.0930857
966.238	0.0922601
966.372	0.0914345
966.506	0.0910217
966.64	0.0978328
966.774	0.0924665
966.908	0.094324
967.043	0.0930857
967.177	0.0934985
967.311	0.0924665
967.445	0.0912281
967.579	0.0978328
967.713	0.0910217
967.847	0.0968008
967.981	0.0937049
968.115	0.0947368
968.249	0.0934985
968.383	0.0959752
968.517	0.0947368
968.651	0.0945304
968.785	0.0965944
968.919	0.0912281
969.053	0.0922601
969.187	0.0926729
969.321	0.0939112
969.455	0.0947368
969.589	0.0916409
969.723	0.0932921
969.857	0.0941176
969.991	0.0955624
970.125	0.0968008
970.259	0.0914345
970.393	0.0959752
970.527	0.095356
970.661	0.095356
970.795	0.0928793
970.929	0.0939112
971.063	0.0910217
971.197	0.0926729
971.331	0.0937049
971.465	0.0941176
971.599	0.094324
971.733	0.0965944
971.867	0.0928793
972.001	0.0961816
972.135	0.0928793
972.269	0.0918473
972.403	0.0924665
972.537	0.0951496
972.671	0.0965944
972.805	0.0916409
972.939	0.0930857
973.073	0.0924665
973.207	0.0922601
973.341	0.094324
973.475	0.0947368
973.609	0.0922601
973.743	0.0916409
973.877	0.096388
974.011	0.0949432
974.145	0.094324
974.279	0.0930857
974.413	0.0932921
974.547	0.094324
974.681	0.095356
974.815	0.0930857
974.949	0.0947368
975.083	0.0939112
975.217	0.0926729
975.351	0.0951496
975.485	0.0928793
975.619	0.0947368
975.753	0.0912281
975.887	0.0932921
976.021	0.095356
976.155	0.094324
976.289	0.0906089
976.423	0.0930857
976.557	0.0934985
976.691	0.0932921
976.825	0.0941176
976.959	0.094324
977.093	0.0937049
977.227	0.0957688
977.361	0.0928793
977.495	0.0949432
977.629	0.0951496
977.763	0.0920537
977.897	0.095356
978.031	0.0906089
978.165	0.0920537
978.299	0.0939112
978.433	0.0955624
978.567	0.0924665
978.701	0.0937049
978.835	0.0955624
978.969	0.0930857
979.103	0.094324
979.237	0.0945304
979.371	0.0908153
979.505	0.0926729
979.639	0.0934985
979.773	0.0951496
979.907	0.0930857
980.041	0.0918473
980.175	0.0955624
980.308	0.0922601
980.442	0.0957688
980.576	0.0939112
980.71	0.0932921
980.844	0.0951496
980.978	0.0932921
981.112	0.0912281
981.246	0.0939112
981.38	0.0928793
981.514	0.0916409
981.648	0.095356
981.782	0.0949432
981.916	0.095356
982.05	0.0926729
982.184	0.0939112
982.318	0.0932921
982.452	0.0949432
982.586	0.095356
982.72	0.095356
982.854	0.0941176
982.988	0.0916409
983.122	0.0937049
983.256	0.0951496
983.39	0.0916409
983.524	0.0951496
983.658	0.0968008
983.792	0.0951496
983.926	0.0932921
984.06	0.0928793
984.194	0.0928793
984.328	0.0924665
984.462	0.0912281
984.596	0.0941176
984.73	0.0918473
984.864	0.0957688
984.998	0.0928793
985.132	0.0930857
985.265	0.0941176
985.399	0.0934985
985.533	0.0924665
985.667	0.0928793
985.801	0.0914345
985.935	0.0932921
986.069	0.0926729
986.203	0.0937049
986.337	0.0937049
986.471	0.0947368
986.605	0.094324
986.739	0.0934985
986.873	0.0922601
987.007	0.0908153
987.141	0.095356
987.275	0.0951496
987.409	0.0945304
987.543	0.0916409
987.677	0.0957688
987.811	0.0920537
987.945	0.0961816
988.079	0.0918473
988.213	0.0906089
988.347	0.0955624
988.481	0.0947368
988.614	0.0912281
988.748	0.0945304
988.882	0.0941176
989.016	0.0959752
989.15	0.0926729
989.284	0.0932921
989.418	0.0932921
989.552	0.0914345
989.686	0.0930857
989.82	0.094324
989.954	0.0961816
990.088	0.0928793
990.222	0.0957688
990.356	0.0928793
990.49	0.0959752
990.624	0.0918473
990.758	0.0947368
990.892	0.0934985
991.026	0.095356
991.16	0.0949432
991.294	0.0926729
991.427	0.0922601
991.561	0.0904025
991.695	0.0928793
991.829	0.0955624
991.963	0.0897833
992.097	0.0934985
992.231	0.0937049
992.365	0.0965944
992.499	0.0939112
992.633	0.0937049
992.767	0.0945304
992.901	0.0941176
993.035	0.0922601
993.169	0.0937049
993.303	0.0949432
993.437	0.0916409
993.571	0.0932921
993.704	0.0928793
993.838	0.0916409
993.972	0.0918473
994.106	0.0949432
994.24	0.0912281
994.374	0.0926729
994.508	0.095356
994.642	0.094324
994.776	0.0949432
994.91	0.0926729
995.044	0.0918473
995.178	0.0926729
995.312	0.0957688
995.446	0.0945304
995.58	0.0922601
995.714	0.0934985
995.847	0.0904025
995.981	0.0922601
996.115	0.0924665
996.249	0.0949432
996.383	0.0920537
996.517	0.0934985
996.651	0.0939112
996.785	0.0959752
996.919	0.0926729
997.053	0.0947368
997.187	0.0939112
997.321	0.0947368
997.455	0.0932921
997.589	0.0889577
997.722	0.0949432
997.856	0.0908153
997.99	0.0945304
998.124	0.094324
998.258	0.0924665
998.392	0.0970072
998.526	0.0932921
998.66	0.0941176
998.794	0.0908153
998.928	0.0926729
999.062	0.0937049
999.196	0.0922601
999.33	0.0939112
999.464	0.0906089
999.597	0.0949432
999.731	0.0930857
999.865	0.0926729
999.999	0.0949432
1000.13	0.0930857
1000.27	0.0965944
1000.4	0.0932921
1000.53	0.0920537
1000.67	0.0941176
1000.8	0.0930857
1000.94	0.0934985
1001.07	0.0897833
1001.2	0.0959752
1001.34	0.0920537
1001.47	0.0932921
1001.61	0.0949432
1001.74	0.0908153
1001.87	0.094324
1002.01	0.0930857
1002.14	0.0914345
1002.28	0.0922601
1002.41	0.0949432
1002.54	0.0922601
1002.68	0.0965944
1002.81	0.0939112
1002.95	0.0957688
1003.08	0.0947368
1003.21	0.0889577
1003.35	0.0934985
1003.48	0.0939112
1003.61	0.0951496
1003.75	0.0941176
1003.88	0.0939112
1004.02	0.0928793
1004.15	0.094324
1004.28	0.0945304
1004.42	0.0951496
1004.55	0.0934985
1004.69	0.0945304
1004.82	0.0920537
1004.95	0.0937049
1005.09	0.0930857
1005.22	0.0930857
1005.36	0.0955624
1005.49	0.0920537
1005.62	0.0924665
1005.76	0.0968008
1005.89	0.0937049
1006.03	0.0912281
1006.16	0.0939112
1006.29	0.0934985
1006.43	0.0976264
1006.56	0.0932921
1006.69	0.0930857
1006.83	0.096388
1006.96	0.0939112
1007.1	0.0922601
1007.23	0.094324
1007.36	0.0939112
1007.5	0.0951496
1007.63	0.0930857
1007.77	0.0945304
1007.9	0.0955624
1008.03	0.0959752
1008.17	0.0932921
1008.3	0.0920537
1008.44	0.0957688
1008.57	0.094324
1008.7	0.0918473
1008.84	0.0947368
1008.97	0.0945304
1009.1	0.0914345
1009.24	0.0941176
1009.37	0.0922601
1009.51	0.0941176
1009.64	0.0939112
1009.77	0.0932921
1009.91	0.0904025
1010.04	0.094324
1010.18	0.0895769
1010.31	0.0951496
1010.44	0.0926729
1010.58	0.0932921
1010.71	0.0934985
1010.85	0.0930857
1010.98	0.0934985
1011.11	0.095356
1011.25	0.0926729
1011.38	0.0939112
1011.51	0.0937049
1011.65	0.0939112
1011.78	0.094324
1011.92	0.0968008
1012.05	0.0918473
1012.18	0.094324
1012.32	0.0922601
1012.45	0.0922601
1012.59	0.0947368
1012.72	0.0951496
1012.85	0.0914345
1012.99	0.0932921
1013.12	0.0949432
1013.26	0.094324
1013.39	0.0910217
1013.52	0.0957688
1013.66	0.0918473
1013.79	0.0939112
1013.92	0.0951496
1014.06	0.0922601
1014.19	0.0916409
1014.33	0.0926729
1014.46	0.0918473
1014.59	0.0949432
1014.73	0.0945304
1014.86	0.0939112
1015	0.0924665
1015.13	0.0914345
1015.26	0.0937049
1015.4	0.0916409
1015.53	0.0930857
1015.67	0.0928793
1015.8	0.0934985
1015.93	0.0906089
1016.07	0.0910217
1016.2	0.0932921
1016.33	0.0961816
1016.47	0.0945304
1016.6	0.0916409
1016.74	0.0914345
1016.87	0.0918473
1017	0.0904025
1017.14	0.0937049
1017.27	0.0906089
1017.41	0.0941176
1017.54	0.0959752
1017.67	0.0932921
1017.81	0.0939112
1017.94	0.094324
1018.07	0.0951496
1018.21	0.0930857
1018.34	0.095356
1018.48	0.095356
1018.61	0.0951496
1018.74	0.0922601
1018.88	0.0970072
1019.01	0.0939112
1019.15	0.0951496
1019.28	0.0928793
1019.41	0.0922601
1019.55	0.0912281
1019.68	0.0959752
1019.82	0.094324
1019.95	0.094324
1020.08	0.0934985
1020.22	0.0937049
1020.35	0.095356
1020.48	0.0947368
1020.62	0.0949432
1020.75	0.0932921
1020.89	0.0941176
1021.02	0.0949432
1021.15	0.0932921
1021.29	0.0914345
1021.42	0.0941176
1021.56	0.0941176
1021.69	0.0941176
1021.82	0.094324
1021.96	0.0934985
1022.09	0.0922601
1022.22	0.0914345
1022.36	0.0926729
1022.49	0.0941176
1022.63	0.0949432
1022.76	0.0957688
1022.89	0.0951496
1023.03	0.0949432
1023.16	0.0916409
1023.3	0.0916409
1023.43	0.0922601
1023.56	0.0949432
1023.7	0.094324
1023.83	0.0934985
1023.96	0.0930857
1024.1	0.0912281
1024.23	0.0937049
1024.37	0.09742
1024.5	0.0932921
1024.63	0.0976264
1024.77	0.0968008
1024.9	0.0906089
1025.04	0.0906089
1025.17	0.0916409
1025.3	0.0937049
1025.44	0.0937049
1025.57	0.0920537
1025.7	0.0947368
1025.84	0.0937049
1025.97	0.0941176
1026.11	0.0930857
1026.24	0.0926729
1026.37	0.094324
1026.51	0.0937049
1026.64	0.0918473
1026.78	0.0937049
1026.91	0.0945304
1027.04	0.096388
1027.18	0.0920537
1027.31	0.0951496
1027.44	0.0932921
1027.58	0.0910217
1027.71	0.0918473
1027.85	0.0914345
1027.98	0.0920537
1028.11	0.0945304
1028.25	0.0928793
1028.38	0.0916409
1028.52	0.094324
1028.65	0.0924665
1028.78	0.0941176
1028.92	0.0949432
1029.05	0.0959752
1029.18	0.0937049
1029.32	0.0961816
1029.45	0.0906089
1029.59	0.095356
1029.72	0.0912281
1029.85	0.0945304
1029.99	0.096388
1030.12	0.0906089
1030.26	0.0922601
1030.39	0.0914345
1030.52	0.095356
1030.66	0.0920537
1030.79	0.0926729
1030.92	0.0926729
1031.06	0.0914345
1031.19	0.0949432
1031.33	0.0941176
1031.46	0.0959752
1031.59	0.0914345
1031.73	0.0959752
1031.86	0.0924665
1031.99	0.094324
1032.13	0.0928793
1032.26	0.0941176
1032.4	0.0932921
1032.53	0.0945304
1032.66	0.0932921
1032.8	0.095356
1032.93	0.0951496
1033.07	0.0937049
1033.2	0.0924665
1033.33	0.0951496
1033.47	0.0916409
1033.6	0.0941176
1033.73	0.0957688
1033.87	0.0924665
1034	0.0930857
1034.14	0.0932921
1034.27	0.0951496
1034.4	0.0914345
1034.54	0.095356
1034.67	0.0937049
1034.81	0.0957688
1034.94	0.0928793
1035.07	0.0920537
1035.21	0.0941176
1035.34	0.0912281
1035.47	0.0932921
1035.61	0.0939112
1035.74	0.0930857
1035.88	0.0918473
1036.01	0.0916409
1036.14	0.0924665
1036.28	0.0932921
1036.41	0.0926729
1036.54	0.0970072
1036.68	0.0945304
1036.81	0.0920537
1036.95	0.0941176
1037.08	0.0961816
1037.21	0.0926729
1037.35	0.0922601
1037.48	0.0930857
1037.62	0.094324
1037.75	0.0951496
1037.88	0.0941176
1038.02	0.0926729
1038.15	0.0918473
1038.28	0.0930857
1038.42	0.094324
1038.55	0.094324
1038.69	0.0920537
1038.82	0.0922601
1038.95	0.0957688
1039.09	0.095356
1039.22	0.0939112
1039.35	0.0934985
1039.49	0.0930857
1039.62	0.0926729
1039.76	0.0920537
1039.89	0.0924665
1040.02	0.0924665
1040.16	0.0939112
1040.29	0.094324
1040.43	0.0930857
1040.56	0.0897833
1040.69	0.095356
1040.83	0.0941176
1040.96	0.0939112
1041.09	0.0920537
1041.23	0.0916409
1041.36	0.0934985
1041.5	0.0947368
1041.63	0.0908153
1041.76	0.0945304
1041.9	0.0957688
1042.03	0.0930857
1042.16	0.0961816
1042.3	0.0926729
1042.43	0.0934985
1042.57	0.0986584
1042.7	0.0932921
1042.83	0.0906089
1042.97	0.0957688
1043.1	0.0961816
1043.23	0.0947368
1043.37	0.0908153
1043.5	0.0939112
1043.64	0.0906089
1043.77	0.0937049
1043.9	0.0904025
1044.04	0.0941176
1044.17	0.095356
1044.31	0.0934985
1044.44	0.0928793
1044.57	0.0945304
1044.71	0.0926729
1044.84	0.0912281
1044.97	0.0926729
1045.11	0.0914345
1045.24	0.0908153
1045.38	0.0945304
1045.51	0.0955624
1045.64	0.094324
1045.78	0.0961816
1045.91	0.0922601
1046.04	0.0932921
1046.18	0.0947368
1046.31	0.0941176
1046.45	0.0932921
1046.58	0.0941176
1046.71	0.0951496
1046.85	0.0961816
1046.98	0.0939112
1047.11	0.0951496
1047.25	0.0932921
1047.38	0.0951496
1047.52	0.0945304
1047.65	0.0926729
1047.78	0.094324
1047.92	0.0932921
1048.05	0.0928793
1048.18	0.0951496
1048.32	0.0947368
1048.45	0.094324
1048.59	0.0926729
1048.72	0.0941176
1048.85	0.0920537
1048.99	0.0949432
1049.12	0.0924665
1049.25	0.0912281
1049.39	0.0955624
1049.52	0.0945304
1049.66	0.0922601
1049.79	0.0934985
1049.92	0.0970072
1050.06	0.094324
1050.19	0.0961816
1050.33	0.0928793
1050.46	0.094324
1050.59	0.0945304
1050.73	0.0937049
1050.86	0.0899897
1050.99	0.0934985
1051.13	0.0930857
1051.26	0.0947368
1051.4	0.094324
1051.53	0.0930857
1051.66	0.0928793
1051.8	0.0934985
1051.93	0.0947368
1052.06	0.094324
1052.2	0.0932921
1052.33	0.0930857
1052.47	0.095356
1052.6	0.0928793
1052.73	0.0914345
1052.87	0.0939112
1053	0.0939112
1053.13	0.094324
1053.27	0.0957688
1053.4	0.096388
1053.54	0.0959752
1053.67	0.0920537
1053.8	0.0926729
1053.94	0.0937049
1054.07	0.095356
1054.2	0.0945304
1054.34	0.0941176
1054.47	0.0970072
1054.61	0.0918473
1054.74	0.0916409
1054.87	0.0908153
1055.01	0.0937049
1055.14	0.094324
1055.27	0.0945304
1055.41	0.0947368
1055.54	0.0908153
1055.68	0.0949432
1055.81	0.0945304
1055.94	0.0912281
1056.08	0.094324
1056.21	0.0934985
1056.34	0.0945304
1056.48	0.0932921
1056.61	0.0928793
1056.75	0.0939112
1056.88	0.0932921
1057.01	0.0920537
1057.15	0.0961816
1057.28	0.0939112
1057.41	0.0916409
1057.55	0.0947368
1057.68	0.0910217
1057.82	0.0947368
1057.95	0.0949432
1058.08	0.0945304
1058.22	0.0914345
1058.35	0.0920537
1058.48	0.0945304
1058.62	0.0926729
1058.75	0.0930857
1058.89	0.0914345
1059.02	0.0947368
1059.15	0.0932921
1059.29	0.0947368
1059.42	0.0941176
1059.55	0.0922601
1059.69	0.0949432
1059.82	0.0906089
1059.96	0.0918473
1060.09	0.0939112
1060.22	0.0939112
1060.36	0.0965944
1060.49	0.0955624
1060.62	0.0945304
1060.76	0.0926729
1060.89	0.0955624
1061.03	0.0930857
1061.16	0.0939112
1061.29	0.0955624
1061.43	0.0955624
1061.56	0.0949432
1061.69	0.0970072
1061.83	0.0912281
1061.96	0.0930857
1062.1	0.0970072
1062.23	0.0908153
1062.36	0.0924665
1062.5	0.0957688
1062.63	0.0965944
1062.76	0.0945304
1062.9	0.0922601
1063.03	0.0941176
1063.17	0.0949432
1063.3	0.0949432
1063.43	0.0928793
1063.57	0.0951496
1063.7	0.0941176
1063.83	0.0912281
1063.97	0.0941176
1064.1	0.0928793
1064.23	0.0926729
1064.37	0.0939112
1064.5	0.0924665
1064.64	0.095356
1064.77	0.0922601
1064.9	0.095356
1065.04	0.0947368
1065.17	0.095356
1065.3	0.0947368
1065.44	0.0934985
1065.57	0.0930857
1065.71	0.0961816
1065.84	0.0897833
1065.97	0.0910217
1066.11	0.0965944
1066.24	0.0922601
1066.37	0.0937049
1066.51	0.0955624
1066.64	0.0934985
1066.78	0.0930857
1066.91	0.0968008
1067.04	0.0916409
1067.18	0.0928793
1067.31	0.095356
1067.44	0.0947368
1067.58	0.0951496
1067.71	0.0914345
1067.85	0.0934985
1067.98	0.0930857
1068.11	0.0951496
1068.25	0.0941176
1068.38	0.0941176
1068.51	0.0920537
1068.65	0.0926729
1068.78	0.0947368
1068.92	0.095356
1069.05	0.0957688
1069.18	0.0932921
1069.32	0.0920537
1069.45	0.0939112
1069.58	0.0928793
1069.72	0.0949432
1069.85	0.094324
1069.98	0.094324
1070.12	0.0924665
1070.25	0.0939112
1070.39	0.0922601
1070.52	0.0924665
1070.65	0.0934985
1070.79	0.0968008
1070.92	0.0939112
1071.05	0.0945304
1071.19	0.0970072
1071.32	0.094324
1071.46	0.0957688
1071.59	0.0926729
1071.72	0.0928793
1071.86	0.0945304
1071.99	0.0957688
1072.12	0.0939112
1072.26	0.0926729
1072.39	0.0904025
1072.53	0.0920537
1072.66	0.0959752
1072.79	0.0932921
1072.93	0.0945304
1073.06	0.0941176
1073.19	0.0926729
1073.33	0.0955624
1073.46	0.0934985
1073.59	0.0941176
1073.73	0.0945304
1073.86	0.0955624
1074	0.0932921
1074.13	0.0928793
1074.26	0.0934985
1074.4	0.0978328
1074.53	0.0949432
1074.66	0.095356
1074.8	0.094324
1074.93	0.0945304
1075.07	0.0930857
1075.2	0.09742
1075.33	0.0924665
1075.47	0.0939112
1075.6	0.0945304
1075.73	0.0930857
1075.87	0.0914345
1076	0.0916409
1076.14	0.0932921
1076.27	0.0941176
1076.4	0.0928793
1076.54	0.094324
1076.67	0.0932921
1076.8	0.0904025
1076.94	0.0922601
1077.07	0.0928793
1077.2	0.095356
1077.34	0.0937049
1077.47	0.0949432
1077.61	0.0918473
1077.74	0.0914345
1077.87	0.0968008
1078.01	0.0937049
1078.14	0.0932921
1078.27	0.0961816
1078.41	0.0895769
1078.54	0.0937049
1078.68	0.0904025
1078.81	0.094324
1078.94	0.0965944
1079.08	0.0976264
1079.21	0.0947368
1079.34	0.0951496
1079.48	0.095356
1079.61	0.0930857
1079.74	0.0945304
1079.88	0.0941176
1080.01	0.0918473
1080.15	0.0949432
1080.28	0.0970072
1080.41	0.0928793
1080.55	0.0941176
1080.68	0.0939112
1080.81	0.0937049
1080.95	0.0949432
1081.08	0.094324
1081.22	0.0920537
1081.35	0.0928793
1081.48	0.0937049
1081.62	0.0914345
1081.75	0.0928793
1081.88	0.0945304
1082.02	0.0928793
1082.15	0.0930857
1082.28	0.0932921
1082.42	0.0932921
1082.55	0.0932921
1082.69	0.0914345
1082.82	0.0951496
1082.95	0.0893705
1083.09	0.095356
1083.22	0.0970072
1083.35	0.0932921
1083.49	0.0930857
1083.62	0.0910217
1083.75	0.0930857
1083.89	0.0912281
1084.02	0.094324
1084.16	0.0947368
1084.29	0.0934985
1084.42	0.0959752
1084.56	0.0930857
1084.69	0.0949432
1084.82	0.0949432
1084.96	0.0961816
1085.09	0.0922601
1085.23	0.0947368
1085.36	0.0949432
1085.49	0.0934985
1085.63	0.0932921
1085.76	0.0930857
1085.89	0.0930857
1086.03	0.0951496
1086.16	0.0916409
1086.29	0.0937049
1086.43	0.0928793
1086.56	0.0941176
1086.7	0.0957688
1086.83	0.0939112
1086.96	0.0951496
1087.1	0.0916409
1087.23	0.0937049
1087.36	0.0918473
1087.5	0.0947368
1087.63	0.0939112
1087.76	0.0947368
1087.9	0.0939112
1088.03	0.0918473
1088.17	0.0945304
1088.3	0.0937049
1088.43	0.0939112
1088.57	0.0945304
1088.7	0.0947368
1088.83	0.0951496
1088.97	0.0910217
1089.1	0.0934985
1089.24	0.0932921
1089.37	0.0937049
1089.5	0.0928793
1089.64	0.0941176
1089.77	0.0947368
1089.9	0.0941176
1090.04	0.0934985
1090.17	0.0947368
1090.3	0.0932921
1090.44	0.0932921
1090.57	0.0949432
1090.71	0.0930857
1090.84	0.0926729
1090.97	0.0945304
1091.11	0.0897833
1091.24	0.0970072
1091.37	0.0918473
1091.51	0.0899897
1091.64	0.0934985
1091.77	0.0941176
1091.91	0.0976264
1092.04	0.094324
1092.18	0.0957688
1092.31	0.0939112
1092.44	0.095356
1092.58	0.0957688
1092.71	0.0939112
1092.84	0.0928793
1092.98	0.0959752
1093.11	0.0908153
1093.24	0.0941176
1093.38	0.0918473
1093.51	0.0947368
1093.65	0.094324
1093.78	0.09742
1093.91	0.0928793
1094.05	0.0945304
1094.18	0.0937049
1094.31	0.0934985
1094.45	0.0922601
1094.58	0.0932921
1094.71	0.0934985
1094.85	0.0939112
1094.98	0.0939112
1095.12	0.0949432
1095.25	0.0930857
1095.38	0.0949432
1095.52	0.0932921
1095.65	0.0926729
1095.78	0.0945304
1095.92	0.0904025
1096.05	0.0928793
1096.18	0.0932921
1096.32	0.0955624
1096.45	0.0961816
1096.59	0.0924665
1096.72	0.0912281
1096.85	0.0941176
1096.99	0.0928793
1097.12	0.096388
1097.25	0.0934985
1097.39	0.0918473
1097.52	0.0939112
1097.65	0.0947368
1097.79	0.0945304
1097.92	0.0959752
1098.06	0.0924665
1098.19	0.0937049
1098.32	0.0918473
1098.46	0.0928793
1098.59	0.0928793
1098.72	0.0959752
1098.86	0.0924665
1098.99	0.0926729
1099.12	0.0976264
1099.26	0.0937049
1099.39	0.0951496
1099.53	0.0945304
1099.66	0.0937049
1099.79	0.0916409
1099.93	0.0951496
1100.06	0.0906089
1100.19	0.0932921
1100.33	0.0945304
1100.46	0.0959752
1100.59	0.0937049
1100.73	0.0945304
1100.86	0.0926729
1100.99	0.0957688
1101.13	0.09742
1101.26	0.0930857
1101.4	0.0928793
1101.53	0.0922601
1101.66	0.0965944
1101.8	0.0947368
1101.93	0.0932921
1102.06	0.0928793
1102.2	0.0918473
1102.33	0.0924665
1102.46	0.0926729
1102.6	0.0928793
1102.73	0.095356
1102.87	0.0914345
1103	0.0970072
1103.13	0.0945304
1103.27	0.0945304
1103.4	0.0926729
1103.53	0.0945304
1103.67	0.0951496
1103.8	0.0949432
1103.93	0.0922601
1104.07	0.0945304
1104.2	0.0945304
1104.34	0.0947368
1104.47	0.0951496
1104.6	0.0930857
1104.74	0.0939112
1104.87	0.0916409
1105	0.0934985
1105.14	0.0920537
1105.27	0.0928793
1105.4	0.0947368
1105.54	0.095356
1105.67	0.0922601
1105.8	0.0939112
1105.94	0.0914345
1106.07	0.0916409
1106.21	0.0961816
1106.34	0.0957688
1106.47	0.0970072
1106.61	0.0916409
1106.74	0.0937049
1106.87	0.0928793
1107.01	0.0937049
1107.14	0.0924665
1107.27	0.0945304
1107.41	0.0934985
1107.54	0.0930857

