Source: Spectrum Viewer

Chart: Pulse Spectrum

Series: 
Wavelength (nm)	S (a.u.)
617.638	0.077613
617.773	0.0793377
617.908	0.077268
618.043	0.0788203
618.178	0.0781304
618.313	0.0770956
618.448	0.08089
618.583	0.0800276
618.718	0.0791652
618.853	0.0783029
618.988	0.0789928
619.123	0.0745085
619.258	0.0791652
619.394	0.0798551
619.529	0.0791652
619.664	0.0800276
619.799	0.0791652
619.934	0.0796826
620.069	0.0770956
620.204	0.077613
620.339	0.0784753
620.474	0.0784753
620.609	0.0788203
620.744	0.0788203
620.879	0.0795102
621.014	0.0812349
621.149	0.0791652
621.284	0.0777854
621.419	0.0791652
621.554	0.0791652
621.689	0.0786478
621.825	0.0777854
621.96	0.077613
622.095	0.0793377
622.23	0.0784753
622.365	0.0779579
622.5	0.0793377
622.635	0.0784753
622.77	0.0789928
622.905	0.0779579
623.04	0.0779579
623.175	0.0777854
623.31	0.077268
623.445	0.0777854
623.58	0.0784753
623.715	0.0774405
623.85	0.0786478
623.985	0.0774405
624.12	0.0788203
624.255	0.0779579
624.39	0.0800276
624.525	0.0781304
624.661	0.0783029
624.796	0.0765781
624.931	0.077268
625.066	0.0760607
625.201	0.0791652
625.336	0.0789928
625.471	0.0769231
625.606	0.0770956
625.741	0.0846844
625.876	0.0793377
626.011	0.0788203
626.146	0.077613
626.281	0.077268
626.416	0.0779579
626.551	0.0777854
626.686	0.0781304
626.821	0.0769231
626.956	0.0777854
627.091	0.0796826
627.226	0.0764057
627.361	0.0786478
627.496	0.077613
627.631	0.0774405
627.766	0.077613
627.901	0.0796826
628.036	0.0760607
628.171	0.0802001
628.307	0.0774405
628.442	0.0769231
628.577	0.0786478
628.712	0.0793377
628.847	0.0783029
628.982	0.0777854
629.117	0.0784753
629.252	0.0795102
629.387	0.0783029
629.522	0.0777854
629.657	0.0779579
629.792	0.0769231
629.927	0.0788203
630.062	0.0770956
630.197	0.0789928
630.332	0.0770956
630.467	0.0795102
630.602	0.0812349
630.737	0.0791652
630.872	0.0758882
631.007	0.0786478
631.142	0.0788203
631.277	0.0788203
631.412	0.0802001
631.547	0.0758882
631.682	0.0789928
631.817	0.0770956
631.952	0.0786478
632.087	0.0774405
632.222	0.0764057
632.357	0.0791652
632.492	0.0803725
632.627	0.0784753
632.762	0.0791652
632.897	0.0774405
633.032	0.0802001
633.167	0.0791652
633.302	0.077268
633.437	0.0769231
633.572	0.0783029
633.707	0.0774405
633.842	0.0783029
633.978	0.0779579
634.113	0.0764057
634.248	0.077613
634.383	0.0798551
634.518	0.0758882
634.653	0.0769231
634.788	0.0788203
634.923	0.0769231
635.058	0.0767506
635.193	0.0767506
635.328	0.0810624
635.463	0.0791652
635.598	0.0769231
635.733	0.0769231
635.868	0.0795102
636.003	0.0796826
636.138	0.0786478
636.273	0.0789928
636.408	0.0786478
636.543	0.0803725
636.678	0.0779579
636.813	0.0789928
636.948	0.0779579
637.083	0.0781304
637.218	0.0796826
637.353	0.0765781
637.488	0.0783029
637.623	0.0786478
637.758	0.0779579
637.893	0.0796826
638.028	0.0786478
638.163	0.0786478
638.298	0.0765781
638.433	0.0779579
638.568	0.0788203
638.703	0.077268
638.838	0.0781304
638.973	0.0795102
639.108	0.0820973
639.243	0.0796826
639.378	0.0755433
639.513	0.077268
639.648	0.080545
639.783	0.0783029
639.918	0.0795102
640.053	0.077613
640.188	0.0789928
640.323	0.0796826
640.458	0.0802001
640.593	0.0783029
640.728	0.077613
640.863	0.0784753
640.998	0.077613
641.133	0.0770956
641.268	0.0791652
641.403	0.0765781
641.538	0.0784753
641.673	0.0779579
641.808	0.0764057
641.943	0.0777854
642.078	0.0789928
642.213	0.0802001
642.348	0.0786478
642.483	0.077268
642.618	0.077268
642.753	0.0786478
642.888	0.0783029
643.023	0.0786478
643.158	0.0793377
643.293	0.0793377
643.428	0.0774405
643.563	0.077613
643.698	0.0783029
643.833	0.0793377
643.968	0.0803725
644.103	0.0800276
644.237	0.0767506
644.372	0.0800276
644.507	0.0777854
644.642	0.077268
644.777	0.0826147
644.912	0.0781304
645.047	0.0788203
645.182	0.0786478
645.317	0.077613
645.452	0.0783029
645.587	0.0793377
645.722	0.0800276
645.857	0.0796826
645.992	0.0793377
646.127	0.0807175
646.262	0.0770956
646.397	0.0793377
646.532	0.0783029
646.667	0.0783029
646.802	0.0786478
646.937	0.0765781
647.072	0.0795102
647.207	0.0798551
647.342	0.0791652
647.477	0.0802001
647.612	0.0789928
647.747	0.0784753
647.882	0.0779579
648.017	0.0781304
648.152	0.077268
648.287	0.077613
648.422	0.0765781
648.557	0.077613
648.692	0.0786478
648.827	0.0767506
648.962	0.0815799
649.097	0.0779579
649.232	0.0796826
649.367	0.0767506
649.502	0.0803725
649.637	0.0812349
649.772	0.0783029
649.906	0.0791652
650.041	0.0789928
650.176	0.0769231
650.311	0.0774405
650.446	0.0810624
650.581	0.0796826
650.716	0.0814074
650.851	0.0774405
650.986	0.0795102
651.121	0.077613
651.256	0.0767506
651.391	0.077613
651.526	0.0789928
651.661	0.0791652
651.796	0.0807175
651.931	0.0779579
652.066	0.0779579
652.201	0.0784753
652.336	0.0786478
652.471	0.0781304
652.606	0.0757158
652.741	0.08089
652.876	0.0784753
653.011	0.0788203
653.146	0.0769231
653.281	0.0770956
653.415	0.0784753
653.55	0.0786478
653.685	0.0783029
653.82	0.0774405
653.955	0.0779579
654.09	0.0774405
654.225	0.0786478
654.36	0.0770956
654.495	0.080545
654.63	0.0800276
654.765	0.0793377
654.9	0.0757158
655.035	0.0796826
655.17	0.077268
655.305	0.0783029
655.44	0.080545
655.575	0.0779579
655.71	0.0777854
655.845	0.0764057
655.98	0.0777854
656.115	0.0781304
656.25	0.0803725
656.384	0.0791652
656.519	0.0795102
656.654	0.0769231
656.789	0.0788203
656.924	0.0777854
657.059	0.0764057
657.194	0.0791652
657.329	0.077268
657.464	0.0798551
657.599	0.0796826
657.734	0.0783029
657.869	0.0802001
658.004	0.0774405
658.139	0.0777854
658.274	0.0779579
658.409	0.0777854
658.544	0.0789928
658.679	0.0751983
658.813	0.0770956
658.948	0.0789928
659.083	0.0786478
659.218	0.0812349
659.353	0.0784753
659.488	0.080545
659.623	0.0777854
659.758	0.0795102
659.893	0.0770956
660.028	0.0793377
660.163	0.0774405
660.298	0.0791652
660.433	0.0810624
660.568	0.0788203
660.703	0.0784753
660.838	0.0812349
660.972	0.0789928
661.107	0.0781304
661.242	0.0788203
661.377	0.0769231
661.512	0.0779579
661.647	0.0793377
661.782	0.0757158
661.917	0.0789928
662.052	0.0798551
662.187	0.0798551
662.322	0.0774405
662.457	0.0779579
662.592	0.077268
662.727	0.0777854
662.862	0.0789928
662.996	0.0786478
663.131	0.0784753
663.266	0.0788203
663.401	0.077613
663.536	0.0795102
663.671	0.0779579
663.806	0.077613
663.941	0.077613
664.076	0.0783029
664.211	0.077268
664.346	0.0793377
664.481	0.0781304
664.616	0.0810624
664.75	0.0815799
664.885	0.0793377
665.02	0.0767506
665.155	0.0795102
665.29	0.0765781
665.425	0.0798551
665.56	0.0770956
665.695	0.0762332
665.83	0.0791652
665.965	0.0781304
666.1	0.0777854
666.235	0.0767506
666.37	0.0781304
666.504	0.0781304
666.639	0.077613
666.774	0.0803725
666.909	0.0784753
667.044	0.08089
667.179	0.0784753
667.314	0.0786478
667.449	0.0783029
667.584	0.0789928
667.719	0.0783029
667.854	0.0788203
667.989	0.0777854
668.123	0.0779579
668.258	0.0777854
668.393	0.0793377
668.528	0.0781304
668.663	0.0784753
668.798	0.0786478
668.933	0.0767506
669.068	0.0786478
669.203	0.0788203
669.338	0.0815799
669.473	0.0779579
669.607	0.077613
669.742	0.077613
669.877	0.0800276
670.012	0.0788203
670.147	0.0788203
670.282	0.0765781
670.417	0.0769231
670.552	0.0802001
670.687	0.0788203
670.822	0.0783029
670.957	0.0765781
671.091	0.0783029
671.226	0.0786478
671.361	0.0784753
671.496	0.0774405
671.631	0.0786478
671.766	0.0767506
671.901	0.077613
672.036	0.0796826
672.171	0.0793377
672.306	0.0788203
672.44	0.0781304
672.575	0.0796826
672.71	0.0784753
672.845	0.0802001
672.98	0.0789928
673.115	0.0796826
673.25	0.0751983
673.385	0.0783029
673.52	0.0796826
673.655	0.0767506
673.789	0.08089
673.924	0.0798551
674.059	0.0781304
674.194	0.0783029
674.329	0.0777854
674.464	0.077268
674.599	0.0781304
674.734	0.0764057
674.869	0.0769231
675.003	0.077613
675.138	0.0810624
675.273	0.0755433
675.408	0.0796826
675.543	0.0770956
675.678	0.077613
675.813	0.0758882
675.948	0.0767506
676.083	0.0783029
676.217	0.0777854
676.352	0.077268
676.487	0.077613
676.622	0.0784753
676.757	0.0793377
676.892	0.0762332
677.027	0.0788203
677.162	0.077613
677.297	0.0795102
677.431	0.0788203
677.566	0.0783029
677.701	0.0784753
677.836	0.0781304
677.971	0.0783029
678.106	0.0789928
678.241	0.0793377
678.376	0.0783029
678.511	0.0777854
678.645	0.0789928
678.78	0.0789928
678.915	0.0791652
679.05	0.077268
679.185	0.0757158
679.32	0.0796826
679.455	0.0786478
679.59	0.0783029
679.724	0.0786478
679.859	0.0777854
679.994	0.077613
680.129	0.0757158
680.264	0.0779579
680.399	0.0784753
680.534	0.0795102
680.669	0.0765781
680.803	0.0812349
680.938	0.0786478
681.073	0.0783029
681.208	0.0789928
681.343	0.0820973
681.478	0.0765781
681.613	0.0795102
681.748	0.0781304
681.882	0.0781304
682.017	0.0781304
682.152	0.0788203
682.287	0.0774405
682.422	0.0777854
682.557	0.0791652
682.692	0.0789928
682.827	0.0793377
682.961	0.0803725
683.096	0.0777854
683.231	0.0784753
683.366	0.0791652
683.501	0.0795102
683.636	0.0788203
683.771	0.077613
683.906	0.077613
684.04	0.0777854
684.175	0.0795102
684.31	0.0765781
684.445	0.0777854
684.58	0.0788203
684.715	0.0781304
684.85	0.0800276
684.984	0.0774405
685.119	0.0807175
685.254	0.0793377
685.389	0.0770956
685.524	0.0789928
685.659	0.077613
685.794	0.0769231
685.928	0.0769231
686.063	0.0793377
686.198	0.0810624
686.333	0.0798551
686.468	0.0774405
686.603	0.0760607
686.738	0.0795102
686.872	0.0774405
687.007	0.0762332
687.142	0.0779579
687.277	0.0770956
687.412	0.0795102
687.547	0.0769231
687.682	0.0781304
687.816	0.0798551
687.951	0.0758882
688.086	0.0784753
688.221	0.0788203
688.356	0.0784753
688.491	0.0786478
688.626	0.0770956
688.76	0.077613
688.895	0.0800276
689.03	0.0765781
689.165	0.0802001
689.3	0.0777854
689.435	0.0786478
689.57	0.0800276
689.704	0.077268
689.839	0.0796826
689.974	0.0793377
690.109	0.0791652
690.244	0.0810624
690.379	0.0783029
690.513	0.0779579
690.648	0.0765781
690.783	0.0767506
690.918	0.0781304
691.053	0.0791652
691.188	0.0783029
691.323	0.0770956
691.457	0.0757158
691.592	0.0788203
691.727	0.080545
691.862	0.0800276
691.997	0.077613
692.132	0.0789928
692.266	0.0791652
692.401	0.077613
692.536	0.0791652
692.671	0.077268
692.806	0.0755433
692.941	0.0784753
693.075	0.0796826
693.21	0.0781304
693.345	0.0803725
693.48	0.0762332
693.615	0.0786478
693.75	0.0781304
693.885	0.0788203
694.019	0.0815799
694.154	0.0769231
694.289	0.0793377
694.424	0.0795102
694.559	0.0791652
694.694	0.0781304
694.828	0.0786478
694.963	0.0755433
695.098	0.080545
695.233	0.0791652
695.368	0.0786478
695.503	0.0770956
695.637	0.0789928
695.772	0.0796826
695.907	0.0781304
696.042	0.0802001
696.177	0.0786478
696.312	0.077613
696.446	0.0800276
696.581	0.0760607
696.716	0.0795102
696.851	0.0779579
696.986	0.0757158
697.12	0.077268
697.255	0.0793377
697.39	0.0783029
697.525	0.0764057
697.66	0.0795102
697.795	0.0769231
697.929	0.0800276
698.064	0.0783029
698.199	0.0767506
698.334	0.077613
698.469	0.077268
698.604	0.0786478
698.738	0.0783029
698.873	0.0767506
699.008	0.0777854
699.143	0.0779579
699.278	0.077268
699.412	0.0789928
699.547	0.0802001
699.682	0.0796826
699.817	0.0774405
699.952	0.0822697
700.087	0.0767506
700.221	0.0783029
700.356	0.0764057
700.491	0.0779579
700.626	0.077268
700.761	0.0796826
700.895	0.0779579
701.03	0.0803725
701.165	0.0758882
701.3	0.0774405
701.435	0.0774405
701.57	0.0783029
701.704	0.0807175
701.839	0.0765781
701.974	0.0779579
702.109	0.0796826
702.244	0.0798551
702.378	0.0781304
702.513	0.077613
702.648	0.0784753
702.783	0.0795102
702.918	0.0769231
703.052	0.0789928
703.187	0.0800276
703.322	0.0784753
703.457	0.0762332
703.592	0.0788203
703.727	0.0774405
703.861	0.0774405
703.996	0.080545
704.131	0.080545
704.266	0.0765781
704.401	0.0789928
704.535	0.0777854
704.67	0.0770956
704.805	0.0755433
704.94	0.0751983
705.075	0.0783029
705.209	0.0758882
705.344	0.0789928
705.479	0.0748534
705.614	0.0779579
705.749	0.0791652
705.883	0.0793377
706.018	0.0781304
706.153	0.077268
706.288	0.0802001
706.423	0.0777854
706.557	0.0796826
706.692	0.0769231
706.827	0.0770956
706.962	0.0796826
707.097	0.0784753
707.231	0.0779579
707.366	0.0755433
707.501	0.077268
707.636	0.080545
707.771	0.0779579
707.905	0.077613
708.04	0.0802001
708.175	0.0781304
708.31	0.0786478
708.445	0.0779579
708.579	0.0807175
708.714	0.0796826
708.849	0.077613
708.984	0.0784753
709.118	0.0764057
709.253	0.0765781
709.388	0.0789928
709.523	0.0800276
709.658	0.0786478
709.792	0.0784753
709.927	0.0796826
710.062	0.0783029
710.197	0.0781304
710.332	0.0795102
710.466	0.0803725
710.601	0.0758882
710.736	0.0796826
710.871	0.0798551
711.006	0.0795102
711.14	0.0795102
711.275	0.0770956
711.41	0.0793377
711.545	0.0784753
711.679	0.0774405
711.814	0.077268
711.949	0.0786478
712.084	0.0791652
712.219	0.0795102
712.353	0.0800276
712.488	0.0788203
712.623	0.0798551
712.758	0.0769231
712.892	0.0784753
713.027	0.0822697
713.162	0.0779579
713.297	0.0788203
713.432	0.0786478
713.566	0.0800276
713.701	0.0793377
713.836	0.0791652
713.971	0.0793377
714.105	0.0784753
714.24	0.0791652
714.375	0.0791652
714.51	0.077613
714.645	0.0777854
714.779	0.0788203
714.914	0.0762332
715.049	0.0788203
715.184	0.0777854
715.318	0.0802001
715.453	0.0767506
715.588	0.0767506
715.723	0.0784753
715.858	0.0788203
715.992	0.0796826
716.127	0.0788203
716.262	0.0783029
716.397	0.0783029
716.531	0.0798551
716.666	0.0784753
716.801	0.0802001
716.936	0.0807175
717.07	0.0774405
717.205	0.0777854
717.34	0.0791652
717.475	0.0762332
717.61	0.0760607
717.744	0.0791652
717.879	0.0795102
718.014	0.0788203
718.149	0.0770956
718.283	0.0781304
718.418	0.0788203
718.553	0.0779579
718.688	0.0793377
718.822	0.0788203
718.957	0.0774405
719.092	0.0784753
719.227	0.08089
719.361	0.0784753
719.496	0.0760607
719.631	0.077613
719.766	0.0769231
719.9	0.08089
720.035	0.0795102
720.17	0.077613
720.305	0.0783029
720.44	0.0779579
720.574	0.0788203
720.709	0.0786478
720.844	0.0777854
720.979	0.0770956
721.113	0.0777854
721.248	0.0788203
721.383	0.0791652
721.518	0.0795102
721.652	0.0757158
721.787	0.0767506
721.922	0.0783029
722.057	0.0784753
722.191	0.0791652
722.326	0.080545
722.461	0.0779579
722.596	0.0796826
722.73	0.0767506
722.865	0.0784753
723	0.0798551
723.135	0.0783029
723.269	0.0784753
723.404	0.0802001
723.539	0.0769231
723.674	0.0745085
723.808	0.0779579
723.943	0.077613
724.078	0.0777854
724.213	0.0784753
724.347	0.0796826
724.482	0.0795102
724.617	0.0767506
724.752	0.0764057
724.886	0.0767506
725.021	0.0793377
725.156	0.077613
725.291	0.08089
725.425	0.0767506
725.56	0.0798551
725.695	0.0798551
725.829	0.0795102
725.964	0.0770956
726.099	0.0784753
726.234	0.0800276
726.368	0.0796826
726.503	0.0795102
726.638	0.0779579
726.773	0.0793377
726.907	0.0810624
727.042	0.0784753
727.177	0.0777854
727.312	0.0770956
727.446	0.0789928
727.581	0.0796826
727.716	0.0800276
727.851	0.0789928
727.985	0.0812349
728.12	0.0779579
728.255	0.0786478
728.389	0.0783029
728.524	0.0783029
728.659	0.0795102
728.794	0.0814074
728.928	0.0796826
729.063	0.0770956
729.198	0.0789928
729.333	0.0793377
729.467	0.0796826
729.602	0.0786478
729.737	0.0789928
729.872	0.0770956
730.006	0.0769231
730.141	0.0769231
730.276	0.0802001
730.41	0.0779579
730.545	0.0791652
730.68	0.077613
730.815	0.0769231
730.949	0.0800276
731.084	0.077613
731.219	0.0796826
731.354	0.0784753
731.488	0.0783029
731.623	0.0779579
731.758	0.0765781
731.892	0.0757158
732.027	0.0784753
732.162	0.0791652
732.297	0.077268
732.431	0.0796826
732.566	0.0800276
732.701	0.0812349
732.835	0.0795102
732.97	0.0789928
733.105	0.0779579
733.24	0.0767506
733.374	0.0789928
733.509	0.0795102
733.644	0.0786478
733.779	0.0803725
733.913	0.0777854
734.048	0.0802001
734.183	0.0796826
734.317	0.0764057
734.452	0.0783029
734.587	0.0750259
734.722	0.0788203
734.856	0.0786478
734.991	0.0777854
735.126	0.0786478
735.26	0.0777854
735.395	0.0789928
735.53	0.0779579
735.665	0.0777854
735.799	0.0784753
735.934	0.0779579
736.069	0.0774405
736.203	0.0781304
736.338	0.0783029
736.473	0.0781304
736.607	0.0788203
736.742	0.0793377
736.877	0.0764057
737.012	0.0789928
737.146	0.0788203
737.281	0.0800276
737.416	0.0796826
737.55	0.0788203
737.685	0.0800276
737.82	0.0786478
737.955	0.0784753
738.089	0.0789928
738.224	0.077613
738.359	0.0784753
738.493	0.0802001
738.628	0.0788203
738.763	0.0786478
738.897	0.0779579
739.032	0.0788203
739.167	0.0786478
739.302	0.0810624
739.436	0.0779579
739.571	0.0814074
739.706	0.0789928
739.84	0.0781304
739.975	0.0777854
740.11	0.0784753
740.244	0.0788203
740.379	0.0786478
740.514	0.0800276
740.649	0.0789928
740.783	0.0791652
740.918	0.0769231
741.053	0.0793377
741.187	0.0779579
741.322	0.0788203
741.457	0.0803725
741.591	0.0791652
741.726	0.0788203
741.861	0.0770956
741.996	0.0812349
742.13	0.0779579
742.265	0.0798551
742.4	0.0767506
742.534	0.0795102
742.669	0.0783029
742.804	0.0783029
742.938	0.0783029
743.073	0.0793377
743.208	0.0770956
743.342	0.0795102
743.477	0.0789928
743.612	0.0779579
743.747	0.0770956
743.881	0.0755433
744.016	0.0798551
744.151	0.0786478
744.285	0.0781304
744.42	0.0764057
744.555	0.0786478
744.689	0.08089
744.824	0.0781304
744.959	0.0784753
745.093	0.077613
745.228	0.0783029
745.363	0.0777854
745.497	0.0784753
745.632	0.0798551
745.767	0.0789928
745.901	0.0791652
746.036	0.0786478
746.171	0.0803725
746.305	0.0762332
746.44	0.0795102
746.575	0.0796826
746.71	0.0791652
746.844	0.0777854
746.979	0.0800276
747.114	0.0793377
747.248	0.0789928
747.383	0.0793377
747.518	0.0781304
747.652	0.077613
747.787	0.0791652
747.922	0.077613
748.056	0.0784753
748.191	0.0760607
748.326	0.0783029
748.46	0.0769231
748.595	0.0769231
748.73	0.0770956
748.864	0.0784753
748.999	0.0788203
749.134	0.0796826
749.268	0.0783029
749.403	0.0770956
749.538	0.0783029
749.672	0.0781304
749.807	0.0777854
749.942	0.0777854
750.076	0.0793377
750.211	0.0803725
750.346	0.0793377
750.48	0.0814074
750.615	0.08089
750.75	0.0770956
750.884	0.0767506
751.019	0.0781304
751.154	0.0781304
751.288	0.0786478
751.423	0.0786478
751.558	0.0817523
751.692	0.0795102
751.827	0.0796826
751.962	0.0784753
752.096	0.0791652
752.231	0.0789928
752.366	0.0800276
752.5	0.0789928
752.635	0.0760607
752.77	0.0762332
752.904	0.077613
753.039	0.0793377
753.174	0.0789928
753.308	0.080545
753.443	0.0795102
753.578	0.0798551
753.712	0.0767506
753.847	0.0798551
753.982	0.0777854
754.116	0.0783029
754.251	0.0788203
754.386	0.077613
754.52	0.0788203
754.655	0.0803725
754.79	0.0788203
754.924	0.0789928
755.059	0.0784753
755.194	0.0769231
755.328	0.077268
755.463	0.0798551
755.597	0.0774405
755.732	0.0793377
755.867	0.0789928
756.001	0.0800276
756.136	0.0796826
756.271	0.0795102
756.405	0.0798551
756.54	0.0796826
756.675	0.0770956
756.809	0.0783029
756.944	0.0769231
757.079	0.0777854
757.213	0.0758882
757.348	0.0770956
757.483	0.0783029
757.617	0.0769231
757.752	0.077613
757.887	0.0800276
758.021	0.0774405
758.156	0.0783029
758.29	0.0774405
758.425	0.0800276
758.56	0.0784753
758.694	0.0793377
758.829	0.0781304
758.964	0.077268
759.098	0.0784753
759.233	0.0819248
759.368	0.0793377
759.502	0.0791652
759.637	0.077613
759.772	0.0774405
759.906	0.0783029
760.041	0.0779579
760.175	0.0779579
760.31	0.0789928
760.445	0.077613
760.579	0.0783029
760.714	0.0788203
760.849	0.0786478
760.983	0.0802001
761.118	0.0777854
761.253	0.0789928
761.387	0.0802001
761.522	0.0789928
761.656	0.0779579
761.791	0.077268
761.926	0.0769231
762.06	0.0779579
762.195	0.0774405
762.33	0.0786478
762.464	0.0786478
762.599	0.077613
762.733	0.0793377
762.868	0.0791652
763.003	0.0802001
763.137	0.0767506
763.272	0.0781304
763.407	0.0795102
763.541	0.0798551
763.676	0.0764057
763.811	0.077613
763.945	0.0784753
764.08	0.0802001
764.214	0.0786478
764.349	0.0764057
764.484	0.0791652
764.618	0.0774405
764.753	0.077268
764.888	0.0784753
765.022	0.0783029
765.157	0.0781304
765.291	0.0779579
765.426	0.0803725
765.561	0.0783029
765.695	0.080545
765.83	0.0788203
765.965	0.0803725
766.099	0.0784753
766.234	0.0757158
766.368	0.0781304
766.503	0.0767506
766.638	0.0781304
766.772	0.0796826
766.907	0.077613
767.041	0.0815799
767.176	0.0770956
767.311	0.0784753
767.445	0.0796826
767.58	0.0767506
767.715	0.0777854
767.849	0.0774405
767.984	0.077268
768.118	0.0755433
768.253	0.0769231
768.388	0.0788203
768.522	0.0764057
768.657	0.0796826
768.791	0.0770956
768.926	0.0802001
769.061	0.0769231
769.195	0.0770956
769.33	0.0774405
769.465	0.0798551
769.599	0.0774405
769.734	0.0783029
769.868	0.0769231
770.003	0.0793377
770.138	0.0795102
770.272	0.0784753
770.407	0.0788203
770.541	0.0770956
770.676	0.077613
770.811	0.0788203
770.945	0.0765781
771.08	0.0784753
771.214	0.0795102
771.349	0.0746809
771.484	0.0770956
771.618	0.0798551
771.753	0.0762332
771.887	0.0757158
772.022	0.0767506
772.157	0.0788203
772.291	0.0784753
772.426	0.0791652
772.56	0.0788203
772.695	0.0758882
772.83	0.0788203
772.964	0.077268
773.099	0.0758882
773.233	0.0810624
773.368	0.077268
773.503	0.0779579
773.637	0.0789928
773.772	0.0793377
773.906	0.0777854
774.041	0.077613
774.176	0.080545
774.31	0.0783029
774.445	0.0791652
774.579	0.0770956
774.714	0.0784753
774.849	0.0770956
774.983	0.0786478
775.118	0.0791652
775.252	0.0786478
775.387	0.0803725
775.522	0.077268
775.656	0.0789928
775.791	0.0783029
775.925	0.0796826
776.06	0.0770956
776.195	0.0784753
776.329	0.0800276
776.464	0.0777854
776.598	0.0786478
776.733	0.0791652
776.868	0.077613
777.002	0.0760607
777.137	0.080545
777.271	0.0781304
777.406	0.0769231
777.54	0.077613
777.675	0.0770956
777.81	0.0793377
777.944	0.0791652
778.079	0.0789928
778.213	0.0781304
778.348	0.0784753
778.483	0.0798551
778.617	0.0783029
778.752	0.0774405
778.886	0.0783029
779.021	0.0786478
779.155	0.0777854
779.29	0.0769231
779.425	0.0779579
779.559	0.0786478
779.694	0.0786478
779.828	0.0777854
779.963	0.0789928
780.098	0.077613
780.232	0.080545
780.367	0.0777854
780.501	0.077268
780.636	0.077613
780.77	0.0788203
780.905	0.0791652
781.04	0.0795102
781.174	0.077613
781.309	0.0769231
781.443	0.0777854
781.578	0.0786478
781.712	0.077613
781.847	0.0783029
781.982	0.0788203
782.116	0.0779579
782.251	0.0788203
782.385	0.0764057
782.52	0.0786478
782.654	0.0788203
782.789	0.0817523
782.924	0.0779579
783.058	0.0788203
783.193	0.077613
783.327	0.0777854
783.462	0.0784753
783.596	0.0812349
783.731	0.0755433
783.866	0.0791652
784	0.0814074
784.135	0.0788203
784.269	0.0758882
784.404	0.0779579
784.538	0.0795102
784.673	0.0784753
784.808	0.0798551
784.942	0.0774405
785.077	0.0795102
785.211	0.0815799
785.346	0.0800276
785.48	0.0793377
785.615	0.0786478
785.75	0.0802001
785.884	0.0783029
786.019	0.0770956
786.153	0.0786478
786.288	0.0784753
786.422	0.0791652
786.557	0.0783029
786.691	0.0769231
786.826	0.0789928
786.961	0.0783029
787.095	0.077268
787.23	0.0802001
787.364	0.0795102
787.499	0.077268
787.633	0.0786478
787.768	0.0791652
787.902	0.0827872
788.037	0.0807175
788.172	0.0769231
788.306	0.0770956
788.441	0.0788203
788.575	0.0758882
788.71	0.0791652
788.844	0.0803725
788.979	0.077613
789.113	0.0783029
789.248	0.080545
789.383	0.0783029
789.517	0.0812349
789.652	0.077268
789.786	0.0793377
789.921	0.0783029
790.055	0.0783029
790.19	0.0812349
790.324	0.0800276
790.459	0.0798551
790.594	0.0800276
790.728	0.077268
790.863	0.0788203
790.997	0.0764057
791.132	0.0781304
791.266	0.0779579
791.401	0.0781304
791.535	0.0784753
791.67	0.0779579
791.804	0.0783029
791.939	0.0781304
792.074	0.0793377
792.208	0.0796826
792.343	0.0795102
792.477	0.0802001
792.612	0.0784753
792.746	0.0807175
792.881	0.0770956
793.015	0.077613
793.15	0.0826147
793.284	0.077613
793.419	0.0793377
793.553	0.077613
793.688	0.0774405
793.823	0.0788203
793.957	0.0779579
794.092	0.0762332
794.226	0.0789928
794.361	0.0786478
794.495	0.0764057
794.63	0.0789928
794.764	0.077613
794.899	0.0784753
795.033	0.0798551
795.168	0.0770956
795.302	0.0757158
795.437	0.0786478
795.572	0.0791652
795.706	0.0784753
795.841	0.0798551
795.975	0.0781304
796.11	0.0788203
796.244	0.0770956
796.379	0.0781304
796.513	0.0791652
796.648	0.0789928
796.782	0.0802001
796.917	0.0800276
797.051	0.0770956
797.186	0.0789928
797.32	0.0791652
797.455	0.0783029
797.589	0.077613
797.724	0.0796826
797.859	0.080545
797.993	0.0803725
798.128	0.0781304
798.262	0.0796826
798.397	0.0770956
798.531	0.0812349
798.666	0.0789928
798.8	0.080545
798.935	0.0791652
799.069	0.0774405
799.204	0.0767506
799.338	0.0760607
799.473	0.0793377
799.607	0.0784753
799.742	0.0791652
799.876	0.0789928
800.011	0.0793377
800.145	0.0783029
800.28	0.0795102
800.414	0.0789928
800.549	0.077268
800.683	0.0783029
800.818	0.0769231
800.953	0.0793377
801.087	0.0793377
801.222	0.0789928
801.356	0.0777854
801.491	0.0807175
801.625	0.0798551
801.76	0.0807175
801.894	0.0803725
802.029	0.077268
802.163	0.080545
802.298	0.0774405
802.432	0.0795102
802.567	0.0798551
802.701	0.08089
802.836	0.0793377
802.97	0.0784753
803.105	0.0781304
803.239	0.0793377
803.374	0.0812349
803.508	0.0781304
803.643	0.08089
803.777	0.077613
803.912	0.0803725
804.046	0.0789928
804.181	0.0803725
804.315	0.08089
804.45	0.0783029
804.584	0.0764057
804.719	0.0783029
804.853	0.0781304
804.988	0.0781304
805.122	0.077613
805.257	0.0781304
805.391	0.0795102
805.526	0.0779579
805.66	0.0789928
805.795	0.0786478
805.929	0.0781304
806.064	0.077613
806.198	0.0777854
806.333	0.0793377
806.467	0.0781304
806.602	0.0783029
806.736	0.0783029
806.871	0.0760607
807.005	0.0789928
807.14	0.0786478
807.274	0.0789928
807.409	0.0803725
807.543	0.0820973
807.678	0.0793377
807.812	0.08089
807.947	0.0767506
808.081	0.0800276
808.216	0.0831321
808.35	0.0826147
808.485	0.0822697
808.619	0.0810624
808.754	0.0783029
808.888	0.0786478
809.023	0.0796826
809.157	0.0815799
809.292	0.0800276
809.426	0.0802001
809.561	0.0795102
809.695	0.0834771
809.83	0.0786478
809.964	0.0833046
810.099	0.0824422
810.233	0.0812349
810.368	0.0831321
810.502	0.0807175
810.637	0.0814074
810.771	0.0798551
810.906	0.0822697
811.04	0.0824422
811.175	0.083822
811.309	0.0815799
811.444	0.080545
811.578	0.0819248
811.713	0.0846844
811.847	0.0843394
811.982	0.0827872
812.116	0.0852018
812.251	0.0872715
812.385	0.0883063
812.519	0.0877889
812.654	0.0915833
812.788	0.090376
812.923	0.0888237
813.057	0.0943429
813.192	0.0979648
813.326	0.106244
813.461	0.125216
813.595	0.200241
813.73	0.520697
813.864	0.95326
813.999	0.604346
814.133	0.445671
814.268	0.882028
814.402	1
814.537	0.667644
814.671	0.567782
814.806	0.660573
814.94	0.560538
815.075	0.588996
815.209	0.694377
815.344	0.37375
815.478	0.390307
815.612	0.558296
815.747	0.362711
815.881	0.148155
816.016	0.0915833
816.15	0.0891687
816.285	0.0862366
816.419	0.0836495
816.554	0.0845119
816.688	0.0850293
816.823	0.0831321
816.957	0.08089
817.092	0.0814074
817.226	0.0822697
817.361	0.0827872
817.495	0.08089
817.63	0.0800276
817.764	0.0810624
817.898	0.0791652
818.033	0.080545
818.167	0.0810624
818.302	0.0810624
818.436	0.0807175
818.571	0.0788203
818.705	0.0820973
818.84	0.0803725
818.974	0.0798551
819.109	0.0774405
819.243	0.0803725
819.378	0.0803725
819.512	0.0786478
819.646	0.0788203
819.781	0.0796826
819.915	0.0795102
820.05	0.0798551
820.184	0.0796826
820.319	0.0798551
820.453	0.0777854
820.588	0.0795102
820.722	0.08089
820.857	0.0807175
820.991	0.0795102
821.126	0.0802001
821.26	0.0795102
821.394	0.0796826
821.529	0.0791652
821.663	0.0786478
821.798	0.0791652
821.932	0.0788203
822.067	0.0783029
822.201	0.077268
822.336	0.077613
822.47	0.0791652
822.605	0.0764057
822.739	0.0779579
822.873	0.0793377
823.008	0.0789928
823.142	0.0793377
823.277	0.0784753
823.411	0.0798551
823.546	0.0789928
823.68	0.0796826
823.815	0.0789928
823.949	0.077613
824.083	0.0798551
824.218	0.0738186
824.352	0.0796826
824.487	0.0793377
824.621	0.077613
824.756	0.0791652
824.89	0.0783029
825.025	0.0789928
825.159	0.0769231
825.293	0.0798551
825.428	0.0774405
825.562	0.0779579
825.697	0.0781304
825.831	0.0789928
825.966	0.077268
826.1	0.0753708
826.235	0.0784753
826.369	0.0769231
826.503	0.0783029
826.638	0.0798551
826.772	0.0769231
826.907	0.0777854
827.041	0.0783029
827.176	0.0781304
827.31	0.0783029
827.445	0.0769231
827.579	0.0783029
827.713	0.0815799
827.848	0.0788203
827.982	0.0764057
828.117	0.0791652
828.251	0.0807175
828.386	0.0786478
828.52	0.0777854
828.654	0.0796826
828.789	0.0781304
828.923	0.08089
829.058	0.0760607
829.192	0.0783029
829.327	0.0779579
829.461	0.0786478
829.596	0.080545
829.73	0.0793377
829.864	0.077613
829.999	0.0762332
830.133	0.0779579
830.268	0.0777854
830.402	0.0781304
830.537	0.0777854
830.671	0.0789928
830.805	0.0796826
830.94	0.0777854
831.074	0.0796826
831.209	0.0784753
831.343	0.0793377
831.478	0.0793377
831.612	0.0783029
831.746	0.0764057
831.881	0.0791652
832.015	0.0767506
832.15	0.0781304
832.284	0.077268
832.418	0.0796826
832.553	0.0789928
832.687	0.0802001
832.822	0.0786478
832.956	0.0769231
833.091	0.0791652
833.225	0.0784753
833.359	0.077613
833.494	0.0807175
833.628	0.0802001
833.763	0.0786478
833.897	0.0798551
834.032	0.0788203
834.166	0.0767506
834.3	0.0789928
834.435	0.0795102
834.569	0.077268
834.704	0.0788203
834.838	0.0795102
834.972	0.0800276
835.107	0.0795102
835.241	0.0791652
835.376	0.0784753
835.51	0.0789928
835.645	0.0795102
835.779	0.0779579
835.913	0.0786478
836.048	0.0803725
836.182	0.0781304
836.317	0.0796826
836.451	0.0779579
836.585	0.0784753
836.72	0.077613
836.854	0.077613
836.989	0.0770956
837.123	0.0786478
837.257	0.0777854
837.392	0.0762332
837.526	0.077268
837.661	0.0769231
837.795	0.0786478
837.929	0.0789928
838.064	0.08089
838.198	0.0755433
838.333	0.0800276
838.467	0.0779579
838.602	0.0781304
838.736	0.0779579
838.87	0.0781304
839.005	0.0800276
839.139	0.0770956
839.274	0.077268
839.408	0.0796826
839.542	0.0784753
839.677	0.077613
839.811	0.0781304
839.946	0.0783029
840.08	0.0774405
840.214	0.0770956
840.349	0.0774405
840.483	0.0789928
840.618	0.0798551
840.752	0.0786478
840.886	0.077268
841.021	0.0803725
841.155	0.0800276
841.29	0.0779579
841.424	0.0791652
841.558	0.077613
841.693	0.0779579
841.827	0.0789928
841.961	0.0767506
842.096	0.0769231
842.23	0.0777854
842.365	0.0786478
842.499	0.0770956
842.633	0.0796826
842.768	0.0789928
842.902	0.0755433
843.037	0.0784753
843.171	0.08089
843.305	0.077268
843.44	0.0795102
843.574	0.0789928
843.709	0.0784753
843.843	0.0764057
843.977	0.0769231
844.112	0.0788203
844.246	0.0795102
844.381	0.0783029
844.515	0.0786478
844.649	0.0784753
844.784	0.077268
844.918	0.0774405
845.052	0.0774405
845.187	0.0795102
845.321	0.0777854
845.456	0.0798551
845.59	0.0819248
845.724	0.0793377
845.859	0.0786478
845.993	0.0786478
846.128	0.0800276
846.262	0.0777854
846.396	0.0783029
846.531	0.0767506
846.665	0.0791652
846.799	0.0767506
846.934	0.0796826
847.068	0.0779579
847.203	0.0798551
847.337	0.0793377
847.471	0.0796826
847.606	0.0803725
847.74	0.077268
847.874	0.0783029
848.009	0.0774405
848.143	0.0796826
848.278	0.077613
848.412	0.0783029
848.546	0.0795102
848.681	0.0784753
848.815	0.077613
848.949	0.0777854
849.084	0.077268
849.218	0.0793377
849.353	0.0765781
849.487	0.0781304
849.621	0.0779579
849.756	0.0781304
849.89	0.0798551
850.024	0.0786478
850.159	0.0779579
850.293	0.0788203
850.428	0.0779579
850.562	0.0779579
850.696	0.0800276
850.831	0.0783029
850.965	0.0769231
851.099	0.0788203
851.234	0.0789928
851.368	0.0770956
851.502	0.0783029
851.637	0.077613
851.771	0.0774405
851.906	0.0791652
852.04	0.0784753
852.174	0.0784753
852.309	0.0788203
852.443	0.0796826
852.577	0.0793377
852.712	0.0796826
852.846	0.077613
852.98	0.0751983
853.115	0.0781304
853.249	0.0789928
853.384	0.0777854
853.518	0.077268
853.652	0.0784753
853.787	0.0788203
853.921	0.0769231
854.055	0.0800276
854.19	0.08089
854.324	0.0762332
854.458	0.0796826
854.593	0.0764057
854.727	0.0779579
854.861	0.0788203
854.996	0.0803725
855.13	0.0783029
855.265	0.0784753
855.399	0.077613
855.533	0.0791652
855.668	0.077613
855.802	0.077613
855.936	0.0788203
856.071	0.0795102
856.205	0.0784753
856.339	0.0802001
856.474	0.0779579
856.608	0.0796826
856.742	0.0789928
856.877	0.0793377
857.011	0.077268
857.145	0.0796826
857.28	0.0784753
857.414	0.0793377
857.549	0.0783029
857.683	0.0789928
857.817	0.0767506
857.952	0.0783029
858.086	0.0788203
858.22	0.0784753
858.355	0.0774405
858.489	0.0788203
858.623	0.0777854
858.758	0.0779579
858.892	0.0783029
859.026	0.0793377
859.161	0.0781304
859.295	0.0760607
859.429	0.0770956
859.564	0.0793377
859.698	0.0774405
859.832	0.0767506
859.967	0.0784753
860.101	0.0800276
860.235	0.0777854
860.37	0.0802001
860.504	0.0767506
860.638	0.0798551
860.773	0.0781304
860.907	0.0795102
861.041	0.0786478
861.176	0.0795102
861.31	0.0786478
861.444	0.0803725
861.579	0.0796826
861.713	0.0788203
861.847	0.077268
861.982	0.0788203
862.116	0.0774405
862.25	0.077613
862.385	0.0781304
862.519	0.0812349
862.653	0.077613
862.788	0.0788203
862.922	0.0803725
863.056	0.0774405
863.191	0.0777854
863.325	0.0783029
863.459	0.077268
863.594	0.0800276
863.728	0.0779579
863.862	0.0788203
863.997	0.0764057
864.131	0.0770956
864.265	0.0807175
864.4	0.0769231
864.534	0.0751983
864.668	0.077268
864.803	0.0783029
864.937	0.0796826
865.071	0.0748534
865.206	0.0755433
865.34	0.0788203
865.474	0.0779579
865.609	0.0796826
865.743	0.0807175
865.877	0.0786478
866.012	0.0802001
866.146	0.0779579
866.28	0.077613
866.415	0.0779579
866.549	0.0783029
866.683	0.0786478
866.818	0.0788203
866.952	0.0786478
867.086	0.0777854
867.221	0.0783029
867.355	0.0767506
867.489	0.0779579
867.623	0.0779579
867.758	0.077268
867.892	0.0777854
868.026	0.0789928
868.161	0.0795102
868.295	0.0791652
868.429	0.0779579
868.564	0.0786478
868.698	0.0795102
868.832	0.0788203
868.967	0.0796826
869.101	0.077613
869.235	0.0784753
869.37	0.0784753
869.504	0.0779579
869.638	0.0764057
869.773	0.0769231
869.907	0.0748534
870.041	0.0783029
870.175	0.0757158
870.31	0.0770956
870.444	0.0784753
870.578	0.0788203
870.713	0.0786478
870.847	0.0779579
870.981	0.0777854
871.116	0.0798551
871.25	0.0769231
871.384	0.0788203
871.519	0.077613
871.653	0.0798551
871.787	0.0791652
871.921	0.0767506
872.056	0.0774405
872.19	0.077613
872.324	0.0770956
872.459	0.0770956
872.593	0.0781304
872.727	0.0789928
872.862	0.0781304
872.996	0.0774405
873.13	0.0791652
873.264	0.0793377
873.399	0.0762332
873.533	0.0791652
873.667	0.0803725
873.802	0.0796826
873.936	0.0779579
874.07	0.0777854
874.205	0.0779579
874.339	0.0781304
874.473	0.0796826
874.607	0.0786478
874.742	0.0777854
874.876	0.0770956
875.01	0.0783029
875.145	0.0770956
875.279	0.0781304
875.413	0.0769231
875.548	0.0814074
875.682	0.0784753
875.816	0.0774405
875.95	0.0791652
876.085	0.0791652
876.219	0.0795102
876.353	0.0786478
876.488	0.0817523
876.622	0.0767506
876.756	0.0781304
876.89	0.0791652
877.025	0.0784753
877.159	0.0781304
877.293	0.0770956
877.428	0.0784753
877.562	0.0791652
877.696	0.0786478
877.83	0.0784753
877.965	0.0783029
878.099	0.0788203
878.233	0.0786478
878.368	0.0798551
878.502	0.0781304
878.636	0.0803725
878.77	0.0755433
878.905	0.0795102
879.039	0.0784753
879.173	0.0789928
879.308	0.0777854
879.442	0.0807175
879.576	0.0789928
879.71	0.0777854
879.845	0.077268
879.979	0.0774405
880.113	0.0767506
880.248	0.0795102
880.382	0.0769231
880.516	0.0770956
880.65	0.0793377
880.785	0.077268
880.919	0.0807175
881.053	0.0774405
881.188	0.077613
881.322	0.0783029
881.456	0.077268
881.59	0.080545
881.725	0.0786478
881.859	0.0791652
881.993	0.0793377
882.127	0.0777854
882.262	0.0774405
882.396	0.0783029
882.53	0.0777854
882.665	0.0781304
882.799	0.0762332
882.933	0.077613
883.067	0.0802001
883.202	0.0786478
883.336	0.0784753
883.47	0.0762332
883.604	0.0758882
883.739	0.0784753
883.873	0.0770956
884.007	0.0807175
884.142	0.0795102
884.276	0.0779579
884.41	0.0774405
884.544	0.0800276
884.679	0.0791652
884.813	0.0757158
884.947	0.0795102
885.081	0.0791652
885.216	0.0783029
885.35	0.0758882
885.484	0.0788203
885.618	0.077268
885.753	0.0769231
885.887	0.0770956
886.021	0.0770956
886.155	0.0793377
886.29	0.0765781
886.424	0.0791652
886.558	0.0793377
886.693	0.0788203
886.827	0.0784753
886.961	0.077268
887.095	0.08089
887.23	0.0760607
887.364	0.0789928
887.498	0.0789928
887.632	0.0800276
887.767	0.0777854
887.901	0.077613
888.035	0.0764057
888.169	0.0770956
888.304	0.0791652
888.438	0.0786478
888.572	0.0779579
888.706	0.0774405
888.841	0.0793377
888.975	0.0786478
889.109	0.0796826
889.243	0.0791652
889.378	0.0784753
889.512	0.0755433
889.646	0.0767506
889.78	0.0770956
889.915	0.0784753
890.049	0.0788203
890.183	0.077268
890.317	0.0796826
890.452	0.0793377
890.586	0.0798551
890.72	0.0769231
890.854	0.0783029
890.989	0.0779579
891.123	0.0793377
891.257	0.077268
891.391	0.0798551
891.526	0.0779579
891.66	0.0774405
891.794	0.0784753
891.928	0.0788203
892.063	0.0777854
892.197	0.077613
892.331	0.0781304
892.465	0.077268
892.6	0.0758882
892.734	0.0795102
892.868	0.0789928
893.002	0.0795102
893.137	0.077613
893.271	0.0769231
893.405	0.0800276
893.539	0.0795102
893.674	0.0795102
893.808	0.0781304
893.942	0.0783029
894.076	0.0795102
894.21	0.0791652
894.345	0.0779579
894.479	0.080545
894.613	0.0777854
894.747	0.0753708
894.882	0.077613
895.016	0.0800276
895.15	0.0803725
895.284	0.0774405
895.419	0.0781304
895.553	0.077268
895.687	0.0779579
895.821	0.0774405
895.956	0.0781304
896.09	0.0796826
896.224	0.0781304
896.358	0.0779579
896.492	0.0779579
896.627	0.0788203
896.761	0.0796826
896.895	0.0791652
897.029	0.0798551
897.164	0.0777854
897.298	0.0789928
897.432	0.080545
897.566	0.0769231
897.701	0.0755433
897.835	0.0796826
897.969	0.0817523
898.103	0.0779579
898.237	0.0781304
898.372	0.0762332
898.506	0.077613
898.64	0.0791652
898.774	0.077613
898.909	0.0802001
899.043	0.0786478
899.177	0.0779579
899.311	0.0784753
899.445	0.0789928
899.58	0.0789928
899.714	0.0753708
899.848	0.0788203
899.982	0.0753708
900.117	0.0791652
900.251	0.0751983
900.385	0.0789928
900.519	0.077613
900.653	0.0777854
900.788	0.0774405
900.922	0.0786478
901.056	0.0788203
901.19	0.0765781
901.325	0.0777854
901.459	0.0764057
901.593	0.0803725
901.727	0.0789928
901.861	0.0796826
901.996	0.0757158
902.13	0.0777854
902.264	0.0788203
902.398	0.0795102
902.532	0.0783029
902.667	0.0784753
902.801	0.0789928
902.935	0.0789928
903.069	0.0791652
903.204	0.0765781
903.338	0.0774405
903.472	0.0781304
903.606	0.0802001
903.74	0.0769231
903.875	0.0765781
904.009	0.0784753
904.143	0.0788203
904.277	0.0789928
904.411	0.0784753
904.546	0.0779579
904.68	0.077268
904.814	0.0770956
904.948	0.0786478
905.082	0.080545
905.217	0.0767506
905.351	0.0767506
905.485	0.0800276
905.619	0.0793377
905.753	0.0765781
905.888	0.0802001
906.022	0.0779579
906.156	0.0781304
906.29	0.0788203
906.424	0.0798551
906.559	0.0793377
906.693	0.0767506
906.827	0.0769231
906.961	0.0795102
907.095	0.0802001
907.23	0.0793377
907.364	0.0758882
907.498	0.0770956
907.632	0.077613
907.766	0.0800276
907.901	0.0784753
908.035	0.0784753
908.169	0.0781304
908.303	0.0762332
908.437	0.0781304
908.572	0.0769231
908.706	0.0791652
908.84	0.0788203
908.974	0.08089
909.108	0.0781304
909.243	0.0784753
909.377	0.0774405
909.511	0.0770956
909.645	0.0751983
909.779	0.0793377
909.914	0.0757158
910.048	0.0770956
910.182	0.0789928
910.316	0.0789928
910.45	0.0770956
910.585	0.0769231
910.719	0.0793377
910.853	0.0788203
910.987	0.0781304
911.121	0.0779579
911.255	0.0788203
911.39	0.0786478
911.524	0.0795102
911.658	0.0800276
911.792	0.0760607
911.926	0.0788203
912.061	0.0791652
912.195	0.0788203
912.329	0.0777854
912.463	0.0781304
912.597	0.0769231
912.732	0.0788203
912.866	0.0791652
913	0.0784753
913.134	0.0764057
913.268	0.0789928
913.402	0.0789928
913.537	0.0757158
913.671	0.0777854
913.805	0.0791652
913.939	0.0777854
914.073	0.0781304
914.208	0.0765781
914.342	0.0777854
914.476	0.0795102
914.61	0.0755433
914.744	0.0786478
914.878	0.0779579
915.013	0.0764057
915.147	0.0784753
915.281	0.0793377
915.415	0.0774405
915.549	0.0765781
915.683	0.0777854
915.818	0.0777854
915.952	0.0770956
916.086	0.0796826
916.22	0.0769231
916.354	0.0774405
916.488	0.0807175
916.623	0.0788203
916.757	0.0788203
916.891	0.0781304
917.025	0.080545
917.159	0.0762332
917.293	0.0789928
917.428	0.0774405
917.562	0.0786478
917.696	0.0777854
917.83	0.0802001
917.964	0.0796826
918.098	0.0760607
918.233	0.0767506
918.367	0.0781304
918.501	0.0762332
918.635	0.0779579
918.769	0.0779579
918.903	0.0795102
919.038	0.0784753
919.172	0.0760607
919.306	0.0781304
919.44	0.0788203
919.574	0.0789928
919.708	0.0784753
919.843	0.0798551
919.977	0.0812349
920.111	0.0786478
920.245	0.0793377
920.379	0.0803725
920.513	0.0802001
920.648	0.0781304
920.782	0.0800276
920.916	0.0784753
921.05	0.0796826
921.184	0.077268
921.318	0.0819248
921.453	0.0783029
921.587	0.0767506
921.721	0.0784753
921.855	0.0774405
921.989	0.0783029
922.123	0.0786478
922.257	0.0779579
922.392	0.0802001
922.526	0.080545
922.66	0.0765781
922.794	0.077268
922.928	0.0802001
923.062	0.0796826
923.197	0.0807175
923.331	0.0788203
923.465	0.0777854
923.599	0.0774405
923.733	0.0777854
923.867	0.0781304
924.001	0.0781304
924.136	0.0777854
924.27	0.0770956
924.404	0.0781304
924.538	0.0789928
924.672	0.0789928
924.806	0.0803725
924.94	0.0750259
925.075	0.0800276
925.209	0.0770956
925.343	0.0760607
925.477	0.0796826
925.611	0.0789928
925.745	0.077613
925.879	0.074336
926.014	0.0788203
926.148	0.0774405
926.282	0.077613
926.416	0.0779579
926.55	0.077268
926.684	0.0800276
926.818	0.0786478
926.953	0.0798551
927.087	0.0803725
927.221	0.0779579
927.355	0.0774405
927.489	0.0795102
927.623	0.0774405
927.757	0.0789928
927.892	0.08089
928.026	0.0786478
928.16	0.0786478
928.294	0.080545
928.428	0.0796826
928.562	0.0791652
928.696	0.0753708
928.831	0.0774405
928.965	0.0779579
929.099	0.0765781
929.233	0.0784753
929.367	0.0774405
929.501	0.0789928
929.635	0.0786478
929.769	0.08089
929.904	0.0788203
930.038	0.0793377
930.172	0.0769231
930.306	0.0758882
930.44	0.077613
930.574	0.0762332
930.708	0.0783029
930.843	0.0798551
930.977	0.0795102
931.111	0.0779579
931.245	0.0786478
931.379	0.0791652
931.513	0.0781304
931.647	0.077613
931.781	0.0796826
931.916	0.0764057
932.05	0.0769231
932.184	0.077613
932.318	0.0795102
932.452	0.0791652
932.586	0.077268
932.72	0.0769231
932.854	0.0745085
932.989	0.0777854
933.123	0.0779579
933.257	0.0812349
933.391	0.0788203
933.525	0.0795102
933.659	0.0770956
933.793	0.0764057
933.927	0.080545
934.061	0.077613
934.196	0.0769231
934.33	0.0800276
934.464	0.0774405
934.598	0.0784753
934.732	0.0757158
934.866	0.0788203
935	0.0819248
935.134	0.0784753
935.269	0.0789928
935.403	0.0803725
935.537	0.0738186
935.671	0.0795102
935.805	0.0779579
935.939	0.0760607
936.073	0.0769231
936.207	0.0765781
936.341	0.0774405
936.476	0.0788203
936.61	0.0781304
936.744	0.0783029
936.878	0.0784753
937.012	0.0798551
937.146	0.0798551
937.28	0.0789928
937.414	0.0791652
937.548	0.0786478
937.683	0.0770956
937.817	0.0793377
937.951	0.0786478
938.085	0.0769231
938.219	0.0791652
938.353	0.0793377
938.487	0.0777854
938.621	0.0791652
938.755	0.0786478
938.889	0.0789928
939.024	0.0783029
939.158	0.0791652
939.292	0.0786478
939.426	0.0781304
939.56	0.0793377
939.694	0.0791652
939.828	0.0796826
939.962	0.0791652
940.096	0.0791652
940.231	0.0783029
940.365	0.0807175
940.499	0.08089
940.633	0.080545
940.767	0.0779579
940.901	0.0784753
941.035	0.077613
941.169	0.0788203
941.303	0.0769231
941.437	0.0783029
941.571	0.0770956
941.706	0.0791652
941.84	0.0793377
941.974	0.0798551
942.108	0.0783029
942.242	0.0796826
942.376	0.0770956
942.51	0.0764057
942.644	0.0769231
942.778	0.0774405
942.912	0.0777854
943.047	0.0786478
943.181	0.077613
943.315	0.0783029
943.449	0.0764057
943.583	0.077613
943.717	0.077268
943.851	0.077268
943.985	0.0779579
944.119	0.0762332
944.253	0.0779579
944.387	0.0777854
944.522	0.0795102
944.656	0.0788203
944.79	0.077268
944.924	0.0764057
945.058	0.0786478
945.192	0.0795102
945.326	0.0783029
945.46	0.0760607
945.594	0.0789928
945.728	0.0781304
945.862	0.0770956
945.996	0.0777854
946.131	0.0774405
946.265	0.0786478
946.399	0.0774405
946.533	0.077268
946.667	0.0789928
946.801	0.077268
946.935	0.0807175
947.069	0.0769231
947.203	0.0789928
947.337	0.0788203
947.471	0.0810624
947.605	0.0783029
947.739	0.077613
947.874	0.0788203
948.008	0.0751983
948.142	0.0767506
948.276	0.0779579
948.41	0.08089
948.544	0.0777854
948.678	0.0795102
948.812	0.0788203
948.946	0.0774405
949.08	0.0788203
949.214	0.0791652
949.348	0.0774405
949.482	0.0765781
949.617	0.0817523
949.751	0.0765781
949.885	0.0784753
950.019	0.0786478
950.153	0.0788203
950.287	0.0784753
950.421	0.0779579
950.555	0.0795102
950.689	0.0793377
950.823	0.0784753
950.957	0.0788203
951.091	0.0788203
951.225	0.0793377
951.359	0.0786478
951.493	0.0774405
951.628	0.0760607
951.762	0.0784753
951.896	0.0783029
952.03	0.0791652
952.164	0.077613
952.298	0.0800276
952.432	0.0753708
952.566	0.077268
952.7	0.0779579
952.834	0.0765781
952.968	0.0769231
953.102	0.0796826
953.236	0.077613
953.37	0.0770956
953.504	0.0767506
953.639	0.0802001
953.773	0.0807175
953.907	0.0793377
954.041	0.0765781
954.175	0.0798551
954.309	0.0803725
954.443	0.0793377
954.577	0.0764057
954.711	0.0789928
954.845	0.0791652
954.979	0.0777854
955.113	0.0781304
955.247	0.077613
955.381	0.0781304
955.515	0.0789928
955.649	0.0770956
955.783	0.0770956
955.917	0.0798551
956.052	0.0802001
956.186	0.0791652
956.32	0.077613
956.454	0.0788203
956.588	0.077268
956.722	0.0770956
956.856	0.0786478
956.99	0.077613
957.124	0.08089
957.258	0.0786478
957.392	0.077268
957.526	0.0781304
957.66	0.077613
957.794	0.0800276
957.928	0.0789928
958.062	0.08089
958.196	0.0783029
958.33	0.077613
958.464	0.077268
958.598	0.0764057
958.733	0.0769231
958.867	0.0767506
959.001	0.0764057
959.135	0.0760607
959.269	0.0769231
959.403	0.0800276
959.537	0.0800276
959.671	0.080545
959.805	0.0779579
959.939	0.0774405
960.073	0.0769231
960.207	0.077268
960.341	0.0765781
960.475	0.0789928
960.609	0.0781304
960.743	0.0802001
960.877	0.0796826
961.011	0.0803725
961.145	0.0789928
961.279	0.0770956
961.413	0.0781304
961.547	0.0796826
961.681	0.0781304
961.815	0.0783029
961.949	0.080545
962.083	0.0788203
962.218	0.0793377
962.352	0.0802001
962.486	0.0795102
962.62	0.0779579
962.754	0.0798551
962.888	0.0788203
963.022	0.0781304
963.156	0.0795102
963.29	0.0770956
963.424	0.0751983
963.558	0.0770956
963.692	0.080545
963.826	0.0798551
963.96	0.0784753
964.094	0.0791652
964.228	0.0786478
964.362	0.0789928
964.496	0.0779579
964.63	0.0777854
964.764	0.0817523
964.898	0.0788203
965.032	0.0779579
965.166	0.077613
965.3	0.0770956
965.434	0.0796826
965.568	0.0800276
965.702	0.0774405
965.836	0.0769231
965.97	0.0802001
966.104	0.0777854
966.238	0.0779579
966.372	0.0793377
966.506	0.0791652
966.64	0.0777854
966.774	0.0788203
966.908	0.0783029
967.043	0.0779579
967.177	0.0807175
967.311	0.0786478
967.445	0.0786478
967.579	0.0802001
967.713	0.0774405
967.847	0.077268
967.981	0.0779579
968.115	0.077613
968.249	0.0777854
968.383	0.0788203
968.517	0.0788203
968.651	0.0783029
968.785	0.0800276
968.919	0.0800276
969.053	0.0767506
969.187	0.0774405
969.321	0.0786478
969.455	0.0783029
969.589	0.0788203
969.723	0.0777854
969.857	0.0800276
969.991	0.0767506
970.125	0.0765781
970.259	0.0791652
970.393	0.077613
970.527	0.0764057
970.661	0.0770956
970.795	0.0784753
970.929	0.0781304
971.063	0.077613
971.197	0.0781304
971.331	0.0779579
971.465	0.0802001
971.599	0.0765781
971.733	0.0748534
971.867	0.0793377
972.001	0.0803725
972.135	0.0784753
972.269	0.0777854
972.403	0.0800276
972.537	0.0784753
972.671	0.0762332
972.805	0.0791652
972.939	0.0779579
973.073	0.0786478
973.207	0.0781304
973.341	0.0807175
973.475	0.0781304
973.609	0.0793377
973.743	0.0770956
973.877	0.0800276
974.011	0.0788203
974.145	0.0783029
974.279	0.0786478
974.413	0.0788203
974.547	0.0789928
974.681	0.0770956
974.815	0.0769231
974.949	0.0774405
975.083	0.0783029
975.217	0.0781304
975.351	0.077268
975.485	0.0779579
975.619	0.0779579
975.753	0.0781304
975.887	0.0777854
976.021	0.0784753
976.155	0.0789928
976.289	0.0803725
976.423	0.0762332
976.557	0.0795102
976.691	0.0777854
976.825	0.0791652
976.959	0.0783029
977.093	0.0795102
977.227	0.0793377
977.361	0.0762332
977.495	0.0786478
977.629	0.0767506
977.763	0.0791652
977.897	0.0779579
978.031	0.0764057
978.165	0.0802001
978.299	0.0760607
978.433	0.0774405
978.567	0.0795102
978.701	0.0812349
978.835	0.0810624
978.969	0.0810624
979.103	0.077613
979.237	0.0783029
979.371	0.0767506
979.505	0.0770956
979.639	0.0774405
979.773	0.077268
979.907	0.0796826
980.041	0.0807175
980.175	0.0791652
980.308	0.0777854
980.442	0.0793377
980.576	0.0770956
980.71	0.0769231
980.844	0.0767506
980.978	0.0791652
981.112	0.0795102
981.246	0.077268
981.38	0.0789928
981.514	0.0783029
981.648	0.0795102
981.782	0.0765781
981.916	0.0774405
982.05	0.0798551
982.184	0.0795102
982.318	0.077268
982.452	0.0789928
982.586	0.0779579
982.72	0.0783029
982.854	0.0762332
982.988	0.0786478
983.122	0.0767506
983.256	0.0786478
983.39	0.0758882
983.524	0.0791652
983.658	0.0796826
983.792	0.0783029
983.926	0.0758882
984.06	0.0795102
984.194	0.0795102
984.328	0.077268
984.462	0.077613
984.596	0.0793377
984.73	0.077613
984.864	0.0777854
984.998	0.0791652
985.132	0.0786478
985.265	0.0807175
985.399	0.0788203
985.533	0.0798551
985.667	0.0783029
985.801	0.0770956
985.935	0.077613
986.069	0.0767506
986.203	0.0788203
986.337	0.0779579
986.471	0.0788203
986.605	0.0777854
986.739	0.0788203
986.873	0.0777854
987.007	0.0779579
987.141	0.0755433
987.275	0.077613
987.409	0.0793377
987.543	0.0789928
987.677	0.0802001
987.811	0.0769231
987.945	0.0783029
988.079	0.0777854
988.213	0.0769231
988.347	0.0762332
988.481	0.077613
988.614	0.0774405
988.748	0.0770956
988.882	0.0774405
989.016	0.0774405
989.15	0.0798551
989.284	0.0783029
989.418	0.077268
989.552	0.0798551
989.686	0.0779579
989.82	0.0784753
989.954	0.0807175
990.088	0.0786478
990.222	0.0765781
990.356	0.0786478
990.49	0.0764057
990.624	0.077268
990.758	0.0783029
990.892	0.0784753
991.026	0.0758882
991.16	0.0777854
991.294	0.0770956
991.427	0.077613
991.561	0.0779579
991.695	0.0796826
991.829	0.0791652
991.963	0.077268
992.097	0.0786478
992.231	0.0777854
992.365	0.0789928
992.499	0.0795102
992.633	0.0765781
992.767	0.0765781
992.901	0.0783029
993.035	0.0786478
993.169	0.0784753
993.303	0.0765781
993.437	0.0796826
993.571	0.0796826
993.704	0.0777854
993.838	0.0789928
993.972	0.0788203
994.106	0.0793377
994.24	0.0774405
994.374	0.0774405
994.508	0.0769231
994.642	0.077268
994.776	0.0783029
994.91	0.0781304
995.044	0.077613
995.178	0.077613
995.312	0.0753708
995.446	0.0760607
995.58	0.0793377
995.714	0.077268
995.847	0.0781304
995.981	0.0793377
996.115	0.0784753
996.249	0.0791652
996.383	0.0777854
996.517	0.0777854
996.651	0.077268
996.785	0.0788203
996.919	0.0774405
997.053	0.077268
997.187	0.077613
997.321	0.0767506
997.455	0.08089
997.589	0.077613
997.722	0.0819248
997.856	0.0795102
997.99	0.077268
998.124	0.0798551
998.258	0.0796826
998.392	0.0760607
998.526	0.0786478
998.66	0.0798551
998.794	0.0767506
998.928	0.0769231
999.062	0.0791652
999.196	0.0750259
999.33	0.077268
999.464	0.0784753
999.597	0.0781304
999.731	0.0781304
999.865	0.0777854
999.999	0.0791652
1000.13	0.077613
1000.27	0.077613
1000.4	0.0793377
1000.53	0.0770956
1000.67	0.08089
1000.8	0.0781304
1000.94	0.077613
1001.07	0.0764057
1001.2	0.0786478
1001.34	0.0753708
1001.47	0.0803725
1001.61	0.0764057
1001.74	0.0784753
1001.87	0.0767506
1002.01	0.0779579
1002.14	0.0793377
1002.28	0.0784753
1002.41	0.077268
1002.54	0.0802001
1002.68	0.0795102
1002.81	0.0786478
1002.95	0.0788203
1003.08	0.0767506
1003.21	0.0789928
1003.35	0.0789928
1003.48	0.0800276
1003.61	0.0795102
1003.75	0.0774405
1003.88	0.077268
1004.02	0.0795102
1004.15	0.0791652
1004.28	0.077613
1004.42	0.0786478
1004.55	0.0769231
1004.69	0.0767506
1004.82	0.0786478
1004.95	0.0798551
1005.09	0.0796826
1005.22	0.080545
1005.36	0.0802001
1005.49	0.0791652
1005.62	0.077268
1005.76	0.0784753
1005.89	0.0781304
1006.03	0.0789928
1006.16	0.0765781
1006.29	0.0810624
1006.43	0.0784753
1006.56	0.0760607
1006.69	0.0793377
1006.83	0.0795102
1006.96	0.0777854
1007.1	0.0788203
1007.23	0.077613
1007.36	0.0796826
1007.5	0.0788203
1007.63	0.077268
1007.77	0.0767506
1007.9	0.0795102
1008.03	0.077268
1008.17	0.0769231
1008.3	0.0779579
1008.44	0.077613
1008.57	0.0796826
1008.7	0.0777854
1008.84	0.0765781
1008.97	0.0781304
1009.1	0.0791652
1009.24	0.077613
1009.37	0.0803725
1009.51	0.0784753
1009.64	0.0789928
1009.77	0.077613
1009.91	0.0769231
1010.04	0.0789928
1010.18	0.0795102
1010.31	0.0791652
1010.44	0.0786478
1010.58	0.077613
1010.71	0.0791652
1010.85	0.0802001
1010.98	0.0800276
1011.11	0.0796826
1011.25	0.0783029
1011.38	0.0783029
1011.51	0.0788203
1011.65	0.080545
1011.78	0.0764057
1011.92	0.0769231
1012.05	0.0789928
1012.18	0.0781304
1012.32	0.0803725
1012.45	0.0815799
1012.59	0.08089
1012.72	0.0781304
1012.85	0.0774405
1012.99	0.0791652
1013.12	0.0791652
1013.26	0.077268
1013.39	0.0791652
1013.52	0.0812349
1013.66	0.0767506
1013.79	0.0800276
1013.92	0.077268
1014.06	0.0789928
1014.19	0.0779579
1014.33	0.0777854
1014.46	0.0802001
1014.59	0.0798551
1014.73	0.0784753
1014.86	0.0791652
1015	0.0777854
1015.13	0.0783029
1015.26	0.0753708
1015.4	0.0814074
1015.53	0.0741635
1015.67	0.0760607
1015.8	0.0784753
1015.93	0.0812349
1016.07	0.0770956
1016.2	0.0788203
1016.33	0.0779579
1016.47	0.0777854
1016.6	0.0786478
1016.74	0.0795102
1016.87	0.0767506
1017	0.0758882
1017.14	0.0760607
1017.27	0.0784753
1017.41	0.0757158
1017.54	0.0810624
1017.67	0.0784753
1017.81	0.0815799
1017.94	0.0783029
1018.07	0.0764057
1018.21	0.0783029
1018.34	0.0764057
1018.48	0.0791652
1018.61	0.0796826
1018.74	0.0781304
1018.88	0.0769231
1019.01	0.0786478
1019.15	0.0770956
1019.28	0.0793377
1019.41	0.0779579
1019.55	0.080545
1019.68	0.0796826
1019.82	0.0770956
1019.95	0.0791652
1020.08	0.0793377
1020.22	0.0791652
1020.35	0.0777854
1020.48	0.077613
1020.62	0.0786478
1020.75	0.0789928
1020.89	0.0783029
1021.02	0.0767506
1021.15	0.0784753
1021.29	0.0789928
1021.42	0.0755433
1021.56	0.0795102
1021.69	0.0784753
1021.82	0.0814074
1021.96	0.0774405
1022.09	0.0762332
1022.22	0.0784753
1022.36	0.0807175
1022.49	0.0774405
1022.63	0.0802001
1022.76	0.0803725
1022.89	0.077613
1023.03	0.0791652
1023.16	0.0777854
1023.3	0.0800276
1023.43	0.077613
1023.56	0.0788203
1023.7	0.0791652
1023.83	0.0774405
1023.96	0.0784753
1024.1	0.0796826
1024.23	0.0789928
1024.37	0.0783029
1024.5	0.0803725
1024.63	0.0788203
1024.77	0.0781304
1024.9	0.0798551
1025.04	0.080545
1025.17	0.0781304
1025.3	0.0800276
1025.44	0.0789928
1025.57	0.0769231
1025.7	0.0788203
1025.84	0.0779579
1025.97	0.0796826
1026.11	0.0789928
1026.24	0.0783029
1026.37	0.077613
1026.51	0.077613
1026.64	0.0796826
1026.78	0.0793377
1026.91	0.0812349
1027.04	0.0774405
1027.18	0.0802001
1027.31	0.0784753
1027.44	0.0803725
1027.58	0.0783029
1027.71	0.0769231
1027.85	0.0767506
1027.98	0.0789928
1028.11	0.0774405
1028.25	0.0783029
1028.38	0.0783029
1028.52	0.0774405
1028.65	0.0795102
1028.78	0.0769231
1028.92	0.0783029
1029.05	0.0784753
1029.18	0.0786478
1029.32	0.0803725
1029.45	0.0757158
1029.59	0.08089
1029.72	0.0796826
1029.85	0.0784753
1029.99	0.0765781
1030.12	0.0783029
1030.26	0.0789928
1030.39	0.0769231
1030.52	0.0789928
1030.66	0.0788203
1030.79	0.0779579
1030.92	0.0781304
1031.06	0.0777854
1031.19	0.0783029
1031.33	0.0783029
1031.46	0.0788203
1031.59	0.0798551
1031.73	0.0760607
1031.86	0.0779579
1031.99	0.0779579
1032.13	0.0789928
1032.26	0.0791652
1032.4	0.0791652
1032.53	0.0781304
1032.66	0.0765781
1032.8	0.0762332
1032.93	0.0765781
1033.07	0.0788203
1033.2	0.0770956
1033.33	0.0786478
1033.47	0.0791652
1033.6	0.0803725
1033.73	0.0789928
1033.87	0.077613
1034	0.0779579
1034.14	0.0770956
1034.27	0.0786478
1034.4	0.0764057
1034.54	0.0803725
1034.67	0.0781304
1034.81	0.0784753
1034.94	0.0777854
1035.07	0.0770956
1035.21	0.0788203
1035.34	0.077268
1035.47	0.077613
1035.61	0.0777854
1035.74	0.0788203
1035.88	0.0786478
1036.01	0.0779579
1036.14	0.0770956
1036.28	0.0783029
1036.41	0.0769231
1036.54	0.0781304
1036.68	0.077268
1036.81	0.0796826
1036.95	0.0767506
1037.08	0.0798551
1037.21	0.0800276
1037.35	0.0798551
1037.48	0.0767506
1037.62	0.0796826
1037.75	0.0779579
1037.88	0.0793377
1038.02	0.0793377
1038.15	0.0791652
1038.28	0.0791652
1038.42	0.0779579
1038.55	0.0795102
1038.69	0.0789928
1038.82	0.0784753
1038.95	0.0798551
1039.09	0.0783029
1039.22	0.0802001
1039.35	0.0769231
1039.49	0.0802001
1039.62	0.0783029
1039.76	0.0803725
1039.89	0.077613
1040.02	0.0767506
1040.16	0.0795102
1040.29	0.0779579
1040.43	0.0779579
1040.56	0.0784753
1040.69	0.0789928
1040.83	0.080545
1040.96	0.0777854
1041.09	0.077268
1041.23	0.0796826
1041.36	0.0760607
1041.5	0.0779579
1041.63	0.0798551
1041.76	0.0786478
1041.9	0.0791652
1042.03	0.0779579
1042.16	0.0786478
1042.3	0.0777854
1042.43	0.0791652
1042.57	0.0770956
1042.7	0.0800276
1042.83	0.0791652
1042.97	0.0783029
1043.1	0.0770956
1043.23	0.0800276
1043.37	0.0802001
1043.5	0.0784753
1043.64	0.0762332
1043.77	0.0764057
1043.9	0.0765781
1044.04	0.0789928
1044.17	0.077268
1044.31	0.0784753
1044.44	0.0783029
1044.57	0.0795102
1044.71	0.0786478
1044.84	0.0770956
1044.97	0.0796826
1045.11	0.080545
1045.24	0.0777854
1045.38	0.0789928
1045.51	0.0781304
1045.64	0.0783029
1045.78	0.0770956
1045.91	0.0800276
1046.04	0.0767506
1046.18	0.0779579
1046.31	0.0769231
1046.45	0.0784753
1046.58	0.0779579
1046.71	0.0814074
1046.85	0.0807175
1046.98	0.0800276
1047.11	0.0783029
1047.25	0.077268
1047.38	0.0769231
1047.52	0.0795102
1047.65	0.0783029
1047.78	0.0791652
1047.92	0.0770956
1048.05	0.0777854
1048.18	0.0786478
1048.32	0.0784753
1048.45	0.0753708
1048.59	0.0795102
1048.72	0.0786478
1048.85	0.0788203
1048.99	0.0774405
1049.12	0.0784753
1049.25	0.0764057
1049.39	0.0770956
1049.52	0.0781304
1049.66	0.0774405
1049.79	0.0769231
1049.92	0.0774405
1050.06	0.0762332
1050.19	0.0795102
1050.33	0.0802001
1050.46	0.0789928
1050.59	0.0779579
1050.73	0.08089
1050.86	0.077613
1050.99	0.0751983
1051.13	0.0783029
1051.26	0.0777854
1051.4	0.0774405
1051.53	0.0783029
1051.66	0.0758882
1051.8	0.0770956
1051.93	0.0796826
1052.06	0.0791652
1052.2	0.0791652
1052.33	0.0769231
1052.47	0.077268
1052.6	0.0795102
1052.73	0.0786478
1052.87	0.077268
1053	0.0779579
1053.13	0.0802001
1053.27	0.0784753
1053.4	0.0800276
1053.54	0.0769231
1053.67	0.0779579
1053.8	0.077268
1053.94	0.0800276
1054.07	0.0758882
1054.2	0.0770956
1054.34	0.0745085
1054.47	0.0791652
1054.61	0.0764057
1054.74	0.0779579
1054.87	0.0774405
1055.01	0.0769231
1055.14	0.0779579
1055.27	0.077613
1055.41	0.0783029
1055.54	0.0767506
1055.68	0.0783029
1055.81	0.077268
1055.94	0.0765781
1056.08	0.0800276
1056.21	0.0779579
1056.34	0.0789928
1056.48	0.0762332
1056.61	0.0802001
1056.75	0.080545
1056.88	0.077268
1057.01	0.0789928
1057.15	0.0777854
1057.28	0.0800276
1057.41	0.0774405
1057.55	0.0779579
1057.68	0.0774405
1057.82	0.0791652
1057.95	0.0798551
1058.08	0.0793377
1058.22	0.0784753
1058.35	0.0800276
1058.48	0.0781304
1058.62	0.0793377
1058.75	0.0791652
1058.89	0.0781304
1059.02	0.0791652
1059.15	0.0789928
1059.29	0.0770956
1059.42	0.0774405
1059.55	0.0803725
1059.69	0.0779579
1059.82	0.0783029
1059.96	0.0769231
1060.09	0.0793377
1060.22	0.0795102
1060.36	0.0795102
1060.49	0.077268
1060.62	0.0793377
1060.76	0.0762332
1060.89	0.0798551
1061.03	0.0788203
1061.16	0.0802001
1061.29	0.074336
1061.43	0.0783029
1061.56	0.077268
1061.69	0.077613
1061.83	0.077613
1061.96	0.0779579
1062.1	0.0796826
1062.23	0.0786478
1062.36	0.0788203
1062.5	0.0786478
1062.63	0.0798551
1062.76	0.0764057
1062.9	0.0814074
1063.03	0.0798551
1063.17	0.08089
1063.3	0.0791652
1063.43	0.0758882
1063.57	0.0788203
1063.7	0.0774405
1063.83	0.0765781
1063.97	0.0783029
1064.1	0.0762332
1064.23	0.0798551
1064.37	0.0788203
1064.5	0.0795102
1064.64	0.0779579
1064.77	0.0788203
1064.9	0.0777854
1065.04	0.0789928
1065.17	0.0793377
1065.3	0.0774405
1065.44	0.0810624
1065.57	0.0781304
1065.71	0.0777854
1065.84	0.0791652
1065.97	0.0770956
1066.11	0.0757158
1066.24	0.0779579
1066.37	0.0789928
1066.51	0.0795102
1066.64	0.0745085
1066.78	0.0783029
1066.91	0.0796826
1067.04	0.0784753
1067.18	0.0751983
1067.31	0.0788203
1067.44	0.080545
1067.58	0.0784753
1067.71	0.0770956
1067.85	0.0802001
1067.98	0.0791652
1068.11	0.0777854
1068.25	0.077268
1068.38	0.0786478
1068.51	0.0765781
1068.65	0.0783029
1068.78	0.0796826
1068.92	0.0777854
1069.05	0.0769231
1069.18	0.0769231
1069.32	0.0793377
1069.45	0.0781304
1069.58	0.0774405
1069.72	0.0786478
1069.85	0.0781304
1069.98	0.0770956
1070.12	0.0769231
1070.25	0.0789928
1070.39	0.0781304
1070.52	0.0789928
1070.65	0.0757158
1070.79	0.0769231
1070.92	0.0788203
1071.05	0.0793377
1071.19	0.0788203
1071.32	0.0783029
1071.46	0.0802001
1071.59	0.0777854
1071.72	0.0796826
1071.86	0.0781304
1071.99	0.0802001
1072.12	0.0796826
1072.26	0.0750259
1072.39	0.0770956
1072.53	0.0757158
1072.66	0.0788203
1072.79	0.0745085
1072.93	0.0774405
1073.06	0.0769231
1073.19	0.0769231
1073.33	0.0765781
1073.46	0.0762332
1073.59	0.0783029
1073.73	0.0795102
1073.86	0.0789928
1074	0.0745085
1074.13	0.0779579
1074.26	0.0791652
1074.4	0.0769231
1074.53	0.0795102
1074.66	0.0803725
1074.8	0.0791652
1074.93	0.0786478
1075.07	0.0783029
1075.2	0.0770956
1075.33	0.0791652
1075.47	0.0784753
1075.6	0.0788203
1075.73	0.0779579
1075.87	0.0784753
1076	0.0784753
1076.14	0.0786478
1076.27	0.0793377
1076.4	0.0748534
1076.54	0.0795102
1076.67	0.0779579
1076.8	0.080545
1076.94	0.077613
1077.07	0.0796826
1077.2	0.0781304
1077.34	0.0767506
1077.47	0.0779579
1077.61	0.0762332
1077.74	0.0777854
1077.87	0.0793377
1078.01	0.0796826
1078.14	0.0795102
1078.27	0.0798551
1078.41	0.0784753
1078.54	0.0783029
1078.68	0.0748534
1078.81	0.0798551
1078.94	0.0760607
1079.08	0.0777854
1079.21	0.0788203
1079.34	0.0777854
1079.48	0.0770956
1079.61	0.0789928
1079.74	0.077268
1079.88	0.0786478
1080.01	0.0764057
1080.15	0.0781304
1080.28	0.0764057
1080.41	0.0765781
1080.55	0.0777854
1080.68	0.0770956
1080.81	0.0786478
1080.95	0.0793377
1081.08	0.077613
1081.22	0.077613
1081.35	0.077268
1081.48	0.0786478
1081.62	0.0786478
1081.75	0.0800276
1081.88	0.0774405
1082.02	0.0770956
1082.15	0.0781304
1082.28	0.0789928
1082.42	0.0789928
1082.55	0.0779579
1082.69	0.0781304
1082.82	0.0777854
1082.95	0.0767506
1083.09	0.0784753
1083.22	0.0793377
1083.35	0.0793377
1083.49	0.0788203
1083.62	0.0784753
1083.75	0.0793377
1083.89	0.0817523
1084.02	0.0765781
1084.16	0.0779579
1084.29	0.080545
1084.42	0.0777854
1084.56	0.0767506
1084.69	0.0746809
1084.82	0.0760607
1084.96	0.0777854
1085.09	0.0781304
1085.23	0.080545
1085.36	0.0783029
1085.49	0.0781304
1085.63	0.0783029
1085.76	0.0796826
1085.89	0.077268
1086.03	0.0770956
1086.16	0.0760607
1086.29	0.0796826
1086.43	0.077613
1086.56	0.0774405
1086.7	0.0769231
1086.83	0.0788203
1086.96	0.0777854
1087.1	0.0769231
1087.23	0.0783029
1087.36	0.0762332
1087.5	0.0796826
1087.63	0.0781304
1087.76	0.0753708
1087.9	0.0817523
1088.03	0.0764057
1088.17	0.0800276
1088.3	0.077613
1088.43	0.0807175
1088.57	0.0779579
1088.7	0.0793377
1088.83	0.077268
1088.97	0.0769231
1089.1	0.0767506
1089.24	0.0779579
1089.37	0.0793377
1089.5	0.0783029
1089.64	0.0781304
1089.77	0.0783029
1089.9	0.0791652
1090.04	0.08089
1090.17	0.0770956
1090.3	0.0789928
1090.44	0.0783029
1090.57	0.0767506
1090.71	0.0795102
1090.84	0.0788203
1090.97	0.0788203
1091.11	0.0793377
1091.24	0.0784753
1091.37	0.0770956
1091.51	0.0788203
1091.64	0.0769231
1091.77	0.0786478
1091.91	0.077268
1092.04	0.077613
1092.18	0.0798551
1092.31	0.0788203
1092.44	0.0793377
1092.58	0.0786478
1092.71	0.0769231
1092.84	0.0795102
1092.98	0.080545
1093.11	0.0767506
1093.24	0.077268
1093.38	0.0802001
1093.51	0.0786478
1093.65	0.0770956
1093.78	0.077613
1093.91	0.0786478
1094.05	0.0786478
1094.18	0.0796826
1094.31	0.0758882
1094.45	0.0810624
1094.58	0.0800276
1094.71	0.0791652
1094.85	0.0781304
1094.98	0.0803725
1095.12	0.0788203
1095.25	0.0777854
1095.38	0.0793377
1095.52	0.0767506
1095.65	0.0791652
1095.78	0.0758882
1095.92	0.0770956
1096.05	0.0779579
1096.18	0.0796826
1096.32	0.0791652
1096.45	0.0777854
1096.59	0.0777854
1096.72	0.0781304
1096.85	0.0758882
1096.99	0.0774405
1097.12	0.0789928
1097.25	0.0789928
1097.39	0.0791652
1097.52	0.0788203
1097.65	0.0798551
1097.79	0.0786478
1097.92	0.0753708
1098.06	0.077613
1098.19	0.0815799
1098.32	0.0781304
1098.46	0.0781304
1098.59	0.0777854
1098.72	0.077613
1098.86	0.0791652
1098.99	0.0781304
1099.12	0.0779579
1099.26	0.0779579
1099.39	0.0762332
1099.53	0.0795102
1099.66	0.0777854
1099.79	0.0767506
1099.93	0.0795102
1100.06	0.0789928
1100.19	0.0760607
1100.33	0.0783029
1100.46	0.0783029
1100.59	0.0786478
1100.73	0.0803725
1100.86	0.0777854
1100.99	0.0757158
1101.13	0.0769231
1101.26	0.0769231
1101.4	0.077613
1101.53	0.077613
1101.66	0.0800276
1101.8	0.0774405
1101.93	0.0769231
1102.06	0.0777854
1102.2	0.0791652
1102.33	0.0788203
1102.46	0.0789928
1102.6	0.0765781
1102.73	0.0793377
1102.87	0.0770956
1103	0.0779579
1103.13	0.077268
1103.27	0.0769231
1103.4	0.0788203
1103.53	0.0812349
1103.67	0.0796826
1103.8	0.0802001
1103.93	0.0786478
1104.07	0.0770956
1104.2	0.0820973
1104.34	0.0784753
1104.47	0.0789928
1104.6	0.077268
1104.74	0.0779579
1104.87	0.0777854
1105	0.0812349
1105.14	0.0803725
1105.27	0.0774405
1105.4	0.0788203
1105.54	0.0824422
1105.67	0.077613
1105.8	0.0802001
1105.94	0.0791652
1106.07	0.0777854
1106.21	0.0783029
1106.34	0.0783029
1106.47	0.0779579
1106.61	0.0764057
1106.74	0.080545
1106.87	0.0777854
1107.01	0.0789928
1107.14	0.0769231
1107.27	0.0779579
1107.41	0.0777854
1107.54	0.0793377

