Source: Spectrum Viewer

Chart: Pulse Spectrum

Series: 
Wavelength (nm)	S (a.u.)
617.638	0.0497322
617.773	0.0498415
617.908	0.0490764
618.043	0.0489671
618.178	0.0510438
618.313	0.0498415
618.448	0.0504973
618.583	0.0495136
618.718	0.0497322
618.853	0.0494043
618.988	0.0506066
619.123	0.0480927
619.258	0.0511531
619.394	0.0497322
619.529	0.0488578
619.664	0.0490764
619.799	0.0509345
619.934	0.049295
620.069	0.0500601
620.204	0.0497322
620.339	0.0483113
620.474	0.0496229
620.609	0.0483113
620.744	0.0497322
620.879	0.0489671
621.014	0.0495136
621.149	0.0494043
621.284	0.0497322
621.419	0.0491857
621.554	0.0494043
621.689	0.0494043
621.825	0.0490764
621.96	0.0512624
622.095	0.0500601
622.23	0.0479834
622.365	0.0475462
622.5	0.0494043
622.635	0.049295
622.77	0.0485299
622.905	0.0504973
623.04	0.0506066
623.175	0.0491857
623.31	0.0496229
623.445	0.0483113
623.58	0.0489671
623.715	0.0496229
623.85	0.0496229
623.985	0.0501694
624.12	0.0496229
624.255	0.050388
624.39	0.0496229
624.525	0.0490764
624.661	0.0487485
624.796	0.0488578
624.931	0.0483113
625.066	0.0500601
625.201	0.0511531
625.336	0.0494043
625.471	0.0485299
625.606	0.0490764
625.741	0.0500601
625.876	0.0487485
626.011	0.0494043
626.146	0.0495136
626.281	0.0502787
626.416	0.0510438
626.551	0.0511531
626.686	0.0495136
626.821	0.0504973
626.956	0.0487485
627.091	0.0486392
627.226	0.0495136
627.361	0.0495136
627.496	0.0499508
627.631	0.0491857
627.766	0.0506066
627.901	0.049295
628.036	0.0494043
628.171	0.0485299
628.307	0.0488578
628.442	0.0485299
628.577	0.0491857
628.712	0.0495136
628.847	0.0495136
628.982	0.0502787
629.117	0.0502787
629.252	0.0496229
629.387	0.0491857
629.522	0.0488578
629.657	0.0499508
629.792	0.0491857
629.927	0.0502787
630.062	0.0501694
630.197	0.0507159
630.332	0.0500601
630.467	0.048202
630.602	0.0486392
630.737	0.0479834
630.872	0.0500601
631.007	0.0506066
631.142	0.0506066
631.277	0.0498415
631.412	0.0491857
631.547	0.050388
631.682	0.0486392
631.817	0.0494043
631.952	0.0500601
632.087	0.0499508
632.222	0.0486392
632.357	0.050388
632.492	0.0495136
632.627	0.0508252
632.762	0.050388
632.897	0.0499508
633.032	0.0499508
633.167	0.049295
633.302	0.0486392
633.437	0.0489671
633.572	0.0501694
633.707	0.0502787
633.842	0.0495136
633.978	0.0494043
634.113	0.0502787
634.248	0.0507159
634.383	0.0475462
634.518	0.0486392
634.653	0.0496229
634.788	0.0500601
634.923	0.0489671
635.058	0.0491857
635.193	0.0506066
635.328	0.0489671
635.463	0.0500601
635.598	0.0494043
635.733	0.0494043
635.868	0.0490764
636.003	0.0490764
636.138	0.0500601
636.273	0.0502787
636.408	0.0491857
636.543	0.0502787
636.678	0.0491857
636.813	0.0497322
636.948	0.0500601
637.083	0.049295
637.218	0.0488578
637.353	0.0484206
637.488	0.0497322
637.623	0.0478741
637.758	0.0494043
637.893	0.0506066
638.028	0.0513717
638.163	0.0491857
638.298	0.0496229
638.433	0.0488578
638.568	0.0497322
638.703	0.0495136
638.838	0.0491857
638.973	0.0506066
639.108	0.0499508
639.243	0.0496229
639.378	0.0501694
639.513	0.0484206
639.648	0.0499508
639.783	0.0504973
639.918	0.0484206
640.053	0.0491857
640.188	0.0490764
640.323	0.0499508
640.458	0.049295
640.593	0.049295
640.728	0.0497322
640.863	0.0495136
640.998	0.0501694
641.133	0.0488578
641.268	0.0502787
641.403	0.0495136
641.538	0.0486392
641.673	0.0509345
641.808	0.0485299
641.943	0.0496229
642.078	0.0495136
642.213	0.0495136
642.348	0.0500601
642.483	0.0479834
642.618	0.049295
642.753	0.0469997
642.888	0.049295
643.023	0.0499508
643.158	0.0508252
643.293	0.0496229
643.428	0.0490764
643.563	0.0487485
643.698	0.0497322
643.833	0.0488578
643.968	0.0488578
644.103	0.0496229
644.237	0.0501694
644.372	0.0485299
644.507	0.0495136
644.642	0.0487485
644.777	0.0495136
644.912	0.0510438
645.047	0.0495136
645.182	0.049295
645.317	0.0490764
645.452	0.0487485
645.587	0.0497322
645.722	0.0486392
645.857	0.0510438
645.992	0.048202
646.127	0.0496229
646.262	0.049295
646.397	0.0500601
646.532	0.0488578
646.667	0.0486392
646.802	0.0501694
646.937	0.0486392
647.072	0.0490764
647.207	0.0485299
647.342	0.0486392
647.477	0.0506066
647.612	0.0484206
647.747	0.0500601
647.882	0.0501694
648.017	0.0483113
648.152	0.0507159
648.287	0.0500601
648.422	0.0504973
648.557	0.0476555
648.692	0.0496229
648.827	0.0507159
648.962	0.0499508
649.097	0.0497322
649.232	0.049295
649.367	0.0501694
649.502	0.0504973
649.637	0.0498415
649.772	0.0489671
649.906	0.0490764
650.041	0.0485299
650.176	0.0484206
650.311	0.0489671
650.446	0.0494043
650.581	0.0506066
650.716	0.0490764
650.851	0.0500601
650.986	0.0486392
651.121	0.0484206
651.256	0.049295
651.391	0.0504973
651.526	0.0495136
651.661	0.0491857
651.796	0.0501694
651.931	0.0506066
652.066	0.0502787
652.201	0.0502787
652.336	0.0483113
652.471	0.0480927
652.606	0.0497322
652.741	0.0489671
652.876	0.0496229
653.011	0.0478741
653.146	0.0488578
653.281	0.0496229
653.415	0.0499508
653.55	0.048202
653.685	0.0491857
653.82	0.0490764
653.955	0.0479834
654.09	0.0498415
654.225	0.0488578
654.36	0.0490764
654.495	0.0494043
654.63	0.049295
654.765	0.0497322
654.9	0.0516996
655.035	0.0497322
655.17	0.0491857
655.305	0.0501694
655.44	0.0502787
655.575	0.0500601
655.71	0.0491857
655.845	0.0498415
655.98	0.0502787
656.115	0.0498415
656.25	0.0483113
656.384	0.0485299
656.519	0.0489671
656.654	0.0485299
656.789	0.0506066
656.924	0.0498415
657.059	0.0497322
657.194	0.049295
657.329	0.049295
657.464	0.0495136
657.599	0.0491857
657.734	0.0491857
657.869	0.0494043
658.004	0.0491857
658.139	0.0500601
658.274	0.049295
658.409	0.0499508
658.544	0.0497322
658.679	0.0486392
658.813	0.0459067
658.948	0.0500601
659.083	0.0498415
659.218	0.049295
659.353	0.0489671
659.488	0.0498415
659.623	0.0478741
659.758	0.049295
659.893	0.0479834
660.028	0.0511531
660.163	0.049295
660.298	0.0499508
660.433	0.0489671
660.568	0.0487485
660.703	0.0495136
660.838	0.0502787
660.972	0.0495136
661.107	0.0496229
661.242	0.0499508
661.377	0.0491857
661.512	0.0510438
661.647	0.049295
661.782	0.0478741
661.917	0.0500601
662.052	0.0490764
662.187	0.0496229
662.322	0.0478741
662.457	0.0496229
662.592	0.0483113
662.727	0.0491857
662.862	0.049295
662.996	0.0501694
663.131	0.0483113
663.266	0.0485299
663.401	0.0495136
663.536	0.0497322
663.671	0.0504973
663.806	0.049295
663.941	0.0487485
664.076	0.0487485
664.211	0.0495136
664.346	0.0491857
664.481	0.0485299
664.616	0.0510438
664.75	0.0518089
664.885	0.0501694
665.02	0.0501694
665.155	0.0496229
665.29	0.0499508
665.425	0.0495136
665.56	0.0494043
665.695	0.0508252
665.83	0.0488578
665.965	0.0487485
666.1	0.0506066
666.235	0.0504973
666.37	0.0490764
666.504	0.0497322
666.639	0.0498415
666.774	0.0506066
666.909	0.0500601
667.044	0.0479834
667.179	0.0498415
667.314	0.0475462
667.449	0.0483113
667.584	0.0491857
667.719	0.0507159
667.854	0.0487485
667.989	0.0498415
668.123	0.0487485
668.258	0.0507159
668.393	0.0502787
668.528	0.0488578
668.663	0.0495136
668.798	0.0483113
668.933	0.0509345
669.068	0.0488578
669.203	0.050388
669.338	0.049295
669.473	0.0501694
669.607	0.0472183
669.742	0.0501694
669.877	0.0498415
670.012	0.0496229
670.147	0.0497322
670.282	0.0495136
670.417	0.0484206
670.552	0.0501694
670.687	0.0495136
670.822	0.0499508
670.957	0.0487485
671.091	0.0501694
671.226	0.0496229
671.361	0.0497322
671.496	0.049295
671.631	0.049295
671.766	0.049295
671.901	0.0489671
672.036	0.0499508
672.171	0.0496229
672.306	0.0489671
672.44	0.0495136
672.575	0.0487485
672.71	0.0490764
672.845	0.0510438
672.98	0.0495136
673.115	0.0496229
673.25	0.0497322
673.385	0.0487485
673.52	0.0494043
673.655	0.0500601
673.789	0.0490764
673.924	0.0489671
674.059	0.050388
674.194	0.0496229
674.329	0.0499508
674.464	0.0487485
674.599	0.0506066
674.734	0.0498415
674.869	0.0499508
675.003	0.0474369
675.138	0.0500601
675.273	0.0501694
675.408	0.0491857
675.543	0.0484206
675.678	0.0496229
675.813	0.0499508
675.948	0.0498415
676.083	0.0497322
676.217	0.0498415
676.352	0.0499508
676.487	0.0495136
676.622	0.0478741
676.757	0.0494043
676.892	0.0506066
677.027	0.0496229
677.162	0.0479834
677.297	0.0513717
677.431	0.0499508
677.566	0.0497322
677.701	0.0502787
677.836	0.0490764
677.971	0.0495136
678.106	0.0512624
678.241	0.0495136
678.376	0.0495136
678.511	0.049295
678.645	0.048202
678.78	0.0484206
678.915	0.0485299
679.05	0.0504973
679.185	0.0495136
679.32	0.048202
679.455	0.0475462
679.59	0.0487485
679.724	0.0485299
679.859	0.0496229
679.994	0.0497322
680.129	0.0485299
680.264	0.0499508
680.399	0.0497322
680.534	0.0484206
680.669	0.0495136
680.803	0.0499508
680.938	0.0487485
681.073	0.0500601
681.208	0.0480927
681.343	0.0477648
681.478	0.0509345
681.613	0.0483113
681.748	0.049295
681.882	0.0490764
682.017	0.0502787
682.152	0.0499508
682.287	0.0501694
682.422	0.0495136
682.557	0.0496229
682.692	0.0496229
682.827	0.0507159
682.961	0.0475462
683.096	0.0494043
683.231	0.0495136
683.366	0.0496229
683.501	0.0491857
683.636	0.0483113
683.771	0.0477648
683.906	0.0476555
684.04	0.0496229
684.175	0.0501694
684.31	0.0498415
684.445	0.0497322
684.58	0.0496229
684.715	0.0497322
684.85	0.048202
684.984	0.0483113
685.119	0.0515903
685.254	0.0489671
685.389	0.0486392
685.524	0.0504973
685.659	0.0501694
685.794	0.0480927
685.928	0.0495136
686.063	0.0489671
686.198	0.0496229
686.333	0.0496229
686.468	0.0490764
686.603	0.0485299
686.738	0.0487485
686.872	0.0496229
687.007	0.0488578
687.142	0.0488578
687.277	0.0500601
687.412	0.049295
687.547	0.0491857
687.682	0.049295
687.816	0.0486392
687.951	0.0497322
688.086	0.0497322
688.221	0.0500601
688.356	0.0484206
688.491	0.048202
688.626	0.0491857
688.76	0.0509345
688.895	0.0497322
689.03	0.0484206
689.165	0.049295
689.3	0.0491857
689.435	0.0496229
689.57	0.0474369
689.704	0.0487485
689.839	0.049295
689.974	0.0497322
690.109	0.0494043
690.244	0.0495136
690.379	0.0480927
690.513	0.0518089
690.648	0.0502787
690.783	0.0490764
690.918	0.049295
691.053	0.050388
691.188	0.0506066
691.323	0.0497322
691.457	0.0498415
691.592	0.0477648
691.727	0.049295
691.862	0.0497322
691.997	0.0494043
692.132	0.0487485
692.266	0.0477648
692.401	0.0499508
692.536	0.0494043
692.671	0.0506066
692.806	0.0504973
692.941	0.0485299
693.075	0.0494043
693.21	0.0506066
693.345	0.0498415
693.48	0.0495136
693.615	0.0491857
693.75	0.0488578
693.885	0.0500601
694.019	0.0488578
694.154	0.050388
694.289	0.0496229
694.424	0.0509345
694.559	0.0500601
694.694	0.0497322
694.828	0.0502787
694.963	0.0494043
695.098	0.0499508
695.233	0.0509345
695.368	0.0500601
695.503	0.049295
695.637	0.0498415
695.772	0.0486392
695.907	0.049295
696.042	0.0507159
696.177	0.0490764
696.312	0.049295
696.446	0.0502787
696.581	0.0495136
696.716	0.0498415
696.851	0.0497322
696.986	0.0480927
697.12	0.0491857
697.255	0.0485299
697.39	0.0494043
697.525	0.048202
697.66	0.0484206
697.795	0.0494043
697.929	0.0474369
698.064	0.0490764
698.199	0.0499508
698.334	0.0496229
698.469	0.049295
698.604	0.0494043
698.738	0.0500601
698.873	0.0506066
699.008	0.049295
699.143	0.0497322
699.278	0.0489671
699.412	0.0486392
699.547	0.048202
699.682	0.0490764
699.817	0.0494043
699.952	0.0484206
700.087	0.048202
700.221	0.0485299
700.356	0.0472183
700.491	0.048202
700.626	0.0468904
700.761	0.0496229
700.895	0.0504973
701.03	0.0494043
701.165	0.0509345
701.3	0.0490764
701.435	0.0500601
701.57	0.050388
701.704	0.0504973
701.839	0.0487485
701.974	0.0490764
702.109	0.0497322
702.244	0.049295
702.378	0.0499508
702.513	0.0498415
702.648	0.0507159
702.783	0.0491857
702.918	0.0496229
703.052	0.0491857
703.187	0.0488578
703.322	0.0494043
703.457	0.0485299
703.592	0.0491857
703.727	0.0475462
703.861	0.0498415
703.996	0.0491857
704.131	0.0500601
704.266	0.0487485
704.401	0.0496229
704.535	0.048202
704.67	0.0475462
704.805	0.0501694
704.94	0.0502787
705.075	0.0499508
705.209	0.0496229
705.344	0.0483113
705.479	0.0478741
705.614	0.0483113
705.749	0.0484206
705.883	0.0491857
706.018	0.049295
706.153	0.0501694
706.288	0.0502787
706.423	0.0498415
706.557	0.0487485
706.692	0.0498415
706.827	0.0499508
706.962	0.0494043
707.097	0.0495136
707.231	0.0494043
707.366	0.0488578
707.501	0.0509345
707.636	0.0495136
707.771	0.0497322
707.905	0.0495136
708.04	0.0499508
708.175	0.0486392
708.31	0.0483113
708.445	0.0497322
708.579	0.0494043
708.714	0.0490764
708.849	0.0504973
708.984	0.0499508
709.118	0.0502787
709.253	0.0483113
709.388	0.0511531
709.523	0.0515903
709.658	0.0495136
709.792	0.0485299
709.927	0.0483113
710.062	0.0485299
710.197	0.050388
710.332	0.0496229
710.466	0.0506066
710.601	0.0490764
710.736	0.0479834
710.871	0.0499508
711.006	0.050388
711.14	0.0494043
711.275	0.0500601
711.41	0.0489671
711.545	0.0499508
711.679	0.049295
711.814	0.0496229
711.949	0.0495136
712.084	0.0495136
712.219	0.0476555
712.353	0.0495136
712.488	0.0510438
712.623	0.0501694
712.758	0.0485299
712.892	0.0486392
713.027	0.0486392
713.162	0.0494043
713.297	0.0498415
713.432	0.0506066
713.566	0.048202
713.701	0.0512624
713.836	0.0491857
713.971	0.0498415
714.105	0.0490764
714.24	0.0496229
714.375	0.050388
714.51	0.0476555
714.645	0.0499508
714.779	0.0488578
714.914	0.0510438
715.049	0.0500601
715.184	0.0488578
715.318	0.0497322
715.453	0.0475462
715.588	0.0524648
715.723	0.0485299
715.858	0.0487485
715.992	0.0507159
716.127	0.0497322
716.262	0.0490764
716.397	0.0508252
716.531	0.0494043
716.666	0.0487485
716.801	0.0510438
716.936	0.0499508
717.07	0.0485299
717.205	0.050388
717.34	0.049295
717.475	0.0491857
717.61	0.0496229
717.744	0.0513717
717.879	0.0498415
718.014	0.0491857
718.149	0.0520275
718.283	0.049295
718.418	0.0486392
718.553	0.0496229
718.688	0.0496229
718.822	0.0501694
718.957	0.0500601
719.092	0.0502787
719.227	0.0490764
719.361	0.0477648
719.496	0.0478741
719.631	0.0496229
719.766	0.0485299
719.9	0.0488578
720.035	0.0495136
720.17	0.0504973
720.305	0.0487485
720.44	0.0494043
720.574	0.0499508
720.709	0.0485299
720.844	0.0500601
720.979	0.0500601
721.113	0.0486392
721.248	0.0495136
721.383	0.0490764
721.518	0.0507159
721.652	0.0509345
721.787	0.0494043
721.922	0.0498415
722.057	0.0501694
722.191	0.049295
722.326	0.0495136
722.461	0.0486392
722.596	0.0500601
722.73	0.0490764
722.865	0.0488578
723	0.0461253
723.135	0.0500601
723.269	0.0501694
723.404	0.0488578
723.539	0.0489671
723.674	0.0508252
723.808	0.0497322
723.943	0.0496229
724.078	0.0491857
724.213	0.049295
724.347	0.0487485
724.482	0.0501694
724.617	0.0500601
724.752	0.0496229
724.886	0.0512624
725.021	0.0486392
725.156	0.0495136
725.291	0.0484206
725.425	0.0494043
725.56	0.0488578
725.695	0.0469997
725.829	0.0499508
725.964	0.0487485
726.099	0.049295
726.234	0.0484206
726.368	0.0494043
726.503	0.0494043
726.638	0.0495136
726.773	0.0488578
726.907	0.0476555
727.042	0.0506066
727.177	0.0497322
727.312	0.0487485
727.446	0.0495136
727.581	0.049295
727.716	0.0490764
727.851	0.0483113
727.985	0.0498415
728.12	0.0480927
728.255	0.0506066
728.389	0.0494043
728.524	0.0489671
728.659	0.0500601
728.794	0.0490764
728.928	0.0496229
729.063	0.0499508
729.198	0.0489671
729.333	0.0484206
729.467	0.0489671
729.602	0.048202
729.737	0.0499508
729.872	0.0504973
730.006	0.0497322
730.141	0.0501694
730.276	0.0485299
730.41	0.0489671
730.545	0.0497322
730.68	0.0497322
730.815	0.0499508
730.949	0.049295
731.084	0.0501694
731.219	0.0485299
731.354	0.0483113
731.488	0.0489671
731.623	0.0483113
731.758	0.0484206
731.892	0.0494043
732.027	0.0506066
732.162	0.0497322
732.297	0.0485299
732.431	0.0490764
732.566	0.0485299
732.701	0.0494043
732.835	0.0475462
732.97	0.0495136
733.105	0.0500601
733.24	0.0487485
733.374	0.0486392
733.509	0.0490764
733.644	0.0495136
733.779	0.0489671
733.913	0.0487485
734.048	0.0491857
734.183	0.0499508
734.317	0.0496229
734.452	0.0501694
734.587	0.0488578
734.722	0.0506066
734.856	0.0485299
734.991	0.0475462
735.126	0.049295
735.26	0.049295
735.395	0.0506066
735.53	0.0508252
735.665	0.0495136
735.799	0.049295
735.934	0.0485299
736.069	0.0500601
736.203	0.0490764
736.338	0.0500601
736.473	0.049295
736.607	0.0487485
736.742	0.050388
736.877	0.0480927
737.012	0.0508252
737.146	0.0488578
737.281	0.0500601
737.416	0.0474369
737.55	0.0491857
737.685	0.0501694
737.82	0.0496229
737.955	0.0499508
738.089	0.050388
738.224	0.0497322
738.359	0.049295
738.493	0.050388
738.628	0.0495136
738.763	0.0498415
738.897	0.0506066
739.032	0.0491857
739.167	0.0497322
739.302	0.0513717
739.436	0.0510438
739.571	0.0489671
739.706	0.0487485
739.84	0.0501694
739.975	0.0489671
740.11	0.0455788
740.244	0.048202
740.379	0.0491857
740.514	0.0511531
740.649	0.0490764
740.783	0.0496229
740.918	0.0495136
741.053	0.0487485
741.187	0.0489671
741.322	0.0502787
741.457	0.0495136
741.591	0.0509345
741.726	0.0488578
741.861	0.0480927
741.996	0.049295
742.13	0.0489671
742.265	0.0499508
742.4	0.0513717
742.534	0.0490764
742.669	0.0490764
742.804	0.049295
742.938	0.0487485
743.073	0.0504973
743.208	0.0486392
743.342	0.0489671
743.477	0.0480927
743.612	0.050388
743.747	0.0490764
743.881	0.0495136
744.016	0.0501694
744.151	0.0506066
744.285	0.0491857
744.42	0.050388
744.555	0.050388
744.689	0.0487485
744.824	0.0489671
744.959	0.0487485
745.093	0.0487485
745.228	0.0489671
745.363	0.0508252
745.497	0.0485299
745.632	0.0499508
745.767	0.0499508
745.901	0.0500601
746.036	0.0496229
746.171	0.0502787
746.305	0.0488578
746.44	0.0488578
746.575	0.0489671
746.71	0.0506066
746.844	0.0477648
746.979	0.0496229
747.114	0.0500601
747.248	0.0478741
747.383	0.0515903
747.518	0.0500601
747.652	0.0485299
747.787	0.0494043
747.922	0.0495136
748.056	0.0509345
748.191	0.0497322
748.326	0.0509345
748.46	0.0500601
748.595	0.048202
748.73	0.0487485
748.864	0.049295
748.999	0.0487485
749.134	0.0500601
749.268	0.0486392
749.403	0.0509345
749.538	0.0498415
749.672	0.0491857
749.807	0.0504973
749.942	0.0508252
750.076	0.050388
750.211	0.0484206
750.346	0.0484206
750.48	0.0487485
750.615	0.0490764
750.75	0.0510438
750.884	0.0478741
751.019	0.0496229
751.154	0.049295
751.288	0.049295
751.423	0.0499508
751.558	0.0497322
751.692	0.0483113
751.827	0.0484206
751.962	0.0498415
752.096	0.0499508
752.231	0.0507159
752.366	0.0487485
752.5	0.0495136
752.635	0.0487485
752.77	0.0499508
752.904	0.0500601
753.039	0.0494043
753.174	0.0476555
753.308	0.0489671
753.443	0.048202
753.578	0.0498415
753.712	0.049295
753.847	0.0494043
753.982	0.0502787
754.116	0.0498415
754.251	0.0498415
754.386	0.0494043
754.52	0.0480927
754.655	0.0496229
754.79	0.0494043
754.924	0.0498415
755.059	0.0495136
755.194	0.0502787
755.328	0.0500601
755.463	0.0506066
755.597	0.0490764
755.732	0.0498415
755.867	0.049295
756.001	0.0489671
756.136	0.0488578
756.271	0.0484206
756.405	0.0478741
756.54	0.048202
756.675	0.0487485
756.809	0.049295
756.944	0.0497322
757.079	0.0491857
757.213	0.0504973
757.348	0.0494043
757.483	0.0506066
757.617	0.0500601
757.752	0.0491857
757.887	0.049295
758.021	0.0496229
758.156	0.0509345
758.29	0.0487485
758.425	0.049295
758.56	0.0502787
758.694	0.0495136
758.829	0.0502787
758.964	0.0496229
759.098	0.0490764
759.233	0.0487485
759.368	0.0488578
759.502	0.050388
759.637	0.0506066
759.772	0.0490764
759.906	0.0488578
760.041	0.0483113
760.175	0.0494043
760.31	0.0484206
760.445	0.0488578
760.579	0.0486392
760.714	0.048202
760.849	0.0473276
760.983	0.0488578
761.118	0.049295
761.253	0.049295
761.387	0.0495136
761.522	0.0488578
761.656	0.0510438
761.791	0.0490764
761.926	0.0494043
762.06	0.0490764
762.195	0.049295
762.33	0.0498415
762.464	0.0507159
762.599	0.050388
762.733	0.049295
762.868	0.0495136
763.003	0.0475462
763.137	0.0491857
763.272	0.0483113
763.407	0.0485299
763.541	0.0497322
763.676	0.0495136
763.811	0.0488578
763.945	0.049295
764.08	0.049295
764.214	0.050388
764.349	0.048202
764.484	0.0497322
764.618	0.0490764
764.753	0.0488578
764.888	0.0502787
765.022	0.0497322
765.157	0.0496229
765.291	0.0499508
765.426	0.0489671
765.561	0.0495136
765.695	0.0507159
765.83	0.0502787
765.965	0.0491857
766.099	0.0487485
766.234	0.0497322
766.368	0.0494043
766.503	0.0499508
766.638	0.0496229
766.772	0.0491857
766.907	0.0497322
767.041	0.0490764
767.176	0.050388
767.311	0.0491857
767.445	0.0479834
767.58	0.0483113
767.715	0.0480927
767.849	0.0506066
767.984	0.0502787
768.118	0.0486392
768.253	0.049295
768.388	0.0504973
768.522	0.0502787
768.657	0.0499508
768.791	0.0483113
768.926	0.0501694
769.061	0.0495136
769.195	0.0501694
769.33	0.0487485
769.465	0.0490764
769.599	0.0501694
769.734	0.0494043
769.868	0.048202
770.003	0.0501694
770.138	0.0476555
770.272	0.0486392
770.407	0.0484206
770.541	0.0497322
770.676	0.0487485
770.811	0.050388
770.945	0.049295
771.08	0.0488578
771.214	0.0501694
771.349	0.0497322
771.484	0.0491857
771.618	0.0489671
771.753	0.0475462
771.887	0.0496229
772.022	0.0498415
772.157	0.0486392
772.291	0.0491857
772.426	0.0495136
772.56	0.0494043
772.695	0.049295
772.83	0.0490764
772.964	0.0480927
773.099	0.0489671
773.233	0.0501694
773.368	0.048202
773.503	0.0496229
773.637	0.0497322
773.772	0.0521368
773.906	0.0510438
774.041	0.0508252
774.176	0.0494043
774.31	0.0498415
774.445	0.0499508
774.579	0.0500601
774.714	0.0506066
774.849	0.0500601
774.983	0.0499508
775.118	0.0488578
775.252	0.0489671
775.387	0.0498415
775.522	0.0486392
775.656	0.0491857
775.791	0.0479834
775.925	0.050388
776.06	0.0498415
776.195	0.0494043
776.329	0.0495136
776.464	0.0494043
776.598	0.0494043
776.733	0.0496229
776.868	0.0495136
777.002	0.0497322
777.137	0.0508252
777.271	0.0497322
777.406	0.0501694
777.54	0.0486392
777.675	0.0488578
777.81	0.0500601
777.944	0.0502787
778.079	0.0500601
778.213	0.0491857
778.348	0.0506066
778.483	0.0490764
778.617	0.048202
778.752	0.0495136
778.886	0.0497322
779.021	0.049295
779.155	0.0501694
779.29	0.0501694
779.425	0.050388
779.559	0.0494043
779.694	0.0494043
779.828	0.0494043
779.963	0.0506066
780.098	0.0500601
780.232	0.0496229
780.367	0.0486392
780.501	0.0499508
780.636	0.0501694
780.77	0.0498415
780.905	0.0509345
781.04	0.0489671
781.174	0.0508252
781.309	0.0487485
781.443	0.0489671
781.578	0.0495136
781.712	0.0490764
781.847	0.049295
781.982	0.0502787
782.116	0.049295
782.251	0.049295
782.385	0.0498415
782.52	0.0495136
782.654	0.0491857
782.789	0.0498415
782.924	0.0502787
783.058	0.0496229
783.193	0.0478741
783.327	0.0502787
783.462	0.0507159
783.596	0.049295
783.731	0.0497322
783.866	0.0487485
784	0.0499508
784.135	0.0511531
784.269	0.0496229
784.404	0.0497322
784.538	0.0506066
784.673	0.0499508
784.808	0.0488578
784.942	0.0496229
785.077	0.0498415
785.211	0.0506066
785.346	0.0490764
785.48	0.0501694
785.615	0.0512624
785.75	0.0508252
785.884	0.0487485
786.019	0.0507159
786.153	0.0486392
786.288	0.0510438
786.422	0.0497322
786.557	0.0510438
786.691	0.0495136
786.826	0.0487485
786.961	0.0478741
787.095	0.0489671
787.23	0.0499508
787.364	0.0499508
787.499	0.049295
787.633	0.0502787
787.768	0.0509345
787.902	0.0500601
788.037	0.0498415
788.172	0.0487485
788.306	0.0501694
788.441	0.0479834
788.575	0.0515903
788.71	0.0500601
788.844	0.0501694
788.979	0.0496229
789.113	0.0484206
789.248	0.050388
789.383	0.0494043
789.517	0.0494043
789.652	0.0508252
789.786	0.0495136
789.921	0.0496229
790.055	0.0488578
790.19	0.0496229
790.324	0.0496229
790.459	0.0495136
790.594	0.0518089
790.728	0.0510438
790.863	0.0489671
790.997	0.0498415
791.132	0.0490764
791.266	0.0495136
791.401	0.0490764
791.535	0.0489671
791.67	0.0499508
791.804	0.0501694
791.939	0.0501694
792.074	0.050388
792.208	0.0487485
792.343	0.0510438
792.477	0.049295
792.612	0.0486392
792.746	0.0496229
792.881	0.0488578
793.015	0.0506066
793.15	0.0487485
793.284	0.0484206
793.419	0.0500601
793.553	0.048202
793.688	0.050388
793.823	0.0480927
793.957	0.0500601
794.092	0.0478741
794.226	0.0511531
794.361	0.051481
794.495	0.0479834
794.63	0.0497322
794.764	0.0501694
794.899	0.0478741
795.033	0.0485299
795.168	0.0497322
795.302	0.0502787
795.437	0.0511531
795.572	0.0494043
795.706	0.0484206
795.841	0.0502787
795.975	0.0499508
796.11	0.0506066
796.244	0.0491857
796.379	0.050388
796.513	0.0502787
796.648	0.0501694
796.782	0.0497322
796.917	0.0501694
797.051	0.0500601
797.186	0.0501694
797.32	0.0487485
797.455	0.0489671
797.589	0.0501694
797.724	0.0510438
797.859	0.0496229
797.993	0.0500601
798.128	0.0504973
798.262	0.0518089
798.397	0.0496229
798.531	0.049295
798.666	0.0499508
798.8	0.0496229
798.935	0.0504973
799.069	0.0500601
799.204	0.0488578
799.338	0.0499508
799.473	0.051481
799.607	0.0490764
799.742	0.0513717
799.876	0.0479834
800.011	0.0486392
800.145	0.0480927
800.28	0.0474369
800.414	0.0508252
800.549	0.0501694
800.683	0.0500601
800.818	0.050388
800.953	0.0500601
801.087	0.049295
801.222	0.0491857
801.356	0.0491857
801.491	0.0496229
801.625	0.0494043
801.76	0.0501694
801.894	0.0500601
802.029	0.0504973
802.163	0.0509345
802.298	0.0508252
802.432	0.0499508
802.567	0.0490764
802.701	0.050388
802.836	0.0512624
802.97	0.0518089
803.105	0.0491857
803.239	0.0513717
803.374	0.0504973
803.508	0.0512624
803.643	0.0509345
803.777	0.0500601
803.912	0.0487485
804.046	0.0501694
804.181	0.0513717
804.315	0.0494043
804.45	0.0507159
804.584	0.0497322
804.719	0.0495136
804.853	0.0501694
804.988	0.0496229
805.122	0.0491857
805.257	0.0506066
805.391	0.0501694
805.526	0.0500601
805.66	0.0509345
805.795	0.0511531
805.929	0.0500601
806.064	0.0512624
806.198	0.0509345
806.333	0.0490764
806.467	0.0501694
806.602	0.0508252
806.736	0.0500601
806.871	0.0510438
807.005	0.0516996
807.14	0.0506066
807.274	0.0509345
807.409	0.0500601
807.543	0.0522461
807.678	0.0531206
807.812	0.0518089
807.947	0.0530113
808.081	0.0532299
808.216	0.0535578
808.35	0.0527927
808.485	0.052902
808.619	0.0543229
808.754	0.0536671
808.888	0.0521368
809.023	0.0522461
809.157	0.0524648
809.292	0.0562903
809.426	0.0546508
809.561	0.0569461
809.695	0.0576019
809.83	0.0577112
809.964	0.0602252
810.099	0.0639414
810.233	0.0797901
810.368	0.11575
810.502	0.124276
810.637	0.0999016
810.771	0.145371
810.906	0.291289
811.04	0.400481
811.175	0.570991
811.309	0.847634
811.444	1
811.578	0.862389
811.713	0.824462
811.847	0.513062
811.982	0.192261
812.116	0.271942
812.251	0.423871
812.385	0.403869
812.519	0.127664
812.654	0.0697344
812.788	0.0596787
812.923	0.0543229
813.057	0.0531206
813.192	0.0531206
813.326	0.0531206
813.461	0.0511531
813.595	0.0532299
813.73	0.0518089
813.864	0.0512624
813.999	0.0526834
814.133	0.0509345
814.268	0.051481
814.402	0.0507159
814.537	0.0497322
814.671	0.0516996
814.806	0.0507159
814.94	0.0507159
815.075	0.0501694
815.209	0.0511531
815.344	0.0501694
815.478	0.0484206
815.612	0.0501694
815.747	0.0518089
815.881	0.0504973
816.016	0.0518089
816.15	0.0500601
816.285	0.0513717
816.419	0.0499508
816.554	0.0500601
816.688	0.0499508
816.823	0.0511531
816.957	0.0510438
817.092	0.0494043
817.226	0.0501694
817.361	0.0513717
817.495	0.050388
817.63	0.049295
817.764	0.0499508
817.898	0.0496229
818.033	0.0488578
818.167	0.0486392
818.302	0.0494043
818.436	0.0525741
818.571	0.0498415
818.705	0.0487485
818.84	0.0477648
818.974	0.0508252
819.109	0.049295
819.243	0.047109
819.378	0.0497322
819.512	0.0484206
819.646	0.0497322
819.781	0.0501694
819.915	0.0496229
820.05	0.0499508
820.184	0.0489671
820.319	0.050388
820.453	0.0488578
820.588	0.0483113
820.722	0.0508252
820.857	0.0485299
820.991	0.0497322
821.126	0.0496229
821.26	0.0502787
821.394	0.0486392
821.529	0.0484206
821.663	0.0491857
821.798	0.0495136
821.932	0.0490764
822.067	0.0498415
822.201	0.0490764
822.336	0.0490764
822.47	0.0486392
822.605	0.0495136
822.739	0.0501694
822.873	0.0496229
823.008	0.0496229
823.142	0.0487485
823.277	0.0489671
823.411	0.0495136
823.546	0.0480927
823.68	0.0496229
823.815	0.0497322
823.949	0.0496229
824.083	0.050388
824.218	0.0486392
824.352	0.0489671
824.487	0.0484206
824.621	0.0496229
824.756	0.0490764
824.89	0.0490764
825.025	0.0490764
825.159	0.0494043
825.293	0.0500601
825.428	0.0476555
825.562	0.0487485
825.697	0.0501694
825.831	0.0494043
825.966	0.0504973
826.1	0.0495136
826.235	0.0500601
826.369	0.0489671
826.503	0.0499508
826.638	0.0490764
826.772	0.0499508
826.907	0.0509345
827.041	0.050388
827.176	0.048202
827.31	0.0499508
827.445	0.0494043
827.579	0.0496229
827.713	0.0487485
827.848	0.0497322
827.982	0.0491857
828.117	0.0509345
828.251	0.0491857
828.386	0.0485299
828.52	0.0489671
828.654	0.0485299
828.789	0.0499508
828.923	0.0512624
829.058	0.0502787
829.192	0.0498415
829.327	0.0509345
829.461	0.0491857
829.596	0.049295
829.73	0.0500601
829.864	0.048202
829.999	0.049295
830.133	0.0494043
830.268	0.0496229
830.402	0.0483113
830.537	0.049295
830.671	0.0502787
830.805	0.0509345
830.94	0.0495136
831.074	0.0487485
831.209	0.0498415
831.343	0.0497322
831.478	0.0479834
831.612	0.050388
831.746	0.0498415
831.881	0.0488578
832.015	0.0497322
832.15	0.0498415
832.284	0.0491857
832.418	0.0494043
832.553	0.0500601
832.687	0.049295
832.822	0.0487485
832.956	0.049295
833.091	0.0485299
833.225	0.050388
833.359	0.0497322
833.494	0.0509345
833.628	0.0498415
833.763	0.0501694
833.897	0.0498415
834.032	0.0487485
834.166	0.0485299
834.3	0.0491857
834.435	0.0511531
834.569	0.0500601
834.704	0.0511531
834.838	0.0490764
834.972	0.0494043
835.107	0.0510438
835.241	0.0486392
835.376	0.0489671
835.51	0.0498415
835.645	0.0502787
835.779	0.0479834
835.913	0.0506066
836.048	0.0487485
836.182	0.0495136
836.317	0.0491857
836.451	0.0499508
836.585	0.0490764
836.72	0.0480927
836.854	0.0491857
836.989	0.0490764
837.123	0.0498415
837.257	0.0491857
837.392	0.0496229
837.526	0.0479834
837.661	0.050388
837.795	0.0491857
837.929	0.048202
838.064	0.0509345
838.198	0.0483113
838.333	0.0494043
838.467	0.0479834
838.602	0.0507159
838.736	0.0504973
838.87	0.0476555
839.005	0.049295
839.139	0.0483113
839.274	0.0486392
839.408	0.0496229
839.542	0.0500601
839.677	0.0496229
839.811	0.050388
839.946	0.0488578
840.08	0.0499508
840.214	0.0500601
840.349	0.0490764
840.483	0.0501694
840.618	0.0501694
840.752	0.0491857
840.886	0.0487485
841.021	0.0488578
841.155	0.049295
841.29	0.0491857
841.424	0.049295
841.558	0.049295
841.693	0.0484206
841.827	0.0497322
841.961	0.0500601
842.096	0.0496229
842.23	0.0494043
842.365	0.0501694
842.499	0.0475462
842.633	0.0476555
842.768	0.0499508
842.902	0.0494043
843.037	0.0490764
843.171	0.0497322
843.305	0.049295
843.44	0.0498415
843.574	0.0489671
843.709	0.0500601
843.843	0.0496229
843.977	0.0510438
844.112	0.0485299
844.246	0.0480927
844.381	0.050388
844.515	0.048202
844.649	0.0490764
844.784	0.0491857
844.918	0.0489671
845.052	0.0491857
845.187	0.0488578
845.321	0.0497322
845.456	0.0504973
845.59	0.0507159
845.724	0.0491857
845.859	0.0485299
845.993	0.049295
846.128	0.0502787
846.262	0.0499508
846.396	0.049295
846.531	0.0495136
846.665	0.0498415
846.799	0.0484206
846.934	0.0491857
847.068	0.0489671
847.203	0.0506066
847.337	0.0498415
847.471	0.0502787
847.606	0.0500601
847.74	0.0494043
847.874	0.0484206
848.009	0.0498415
848.143	0.0487485
848.278	0.0494043
848.412	0.0489671
848.546	0.0496229
848.681	0.0497322
848.815	0.0504973
848.949	0.0483113
849.084	0.0487485
849.218	0.0495136
849.353	0.0496229
849.487	0.0497322
849.621	0.0502787
849.756	0.0484206
849.89	0.0506066
850.024	0.0478741
850.159	0.0496229
850.293	0.0473276
850.428	0.0502787
850.562	0.0489671
850.696	0.0496229
850.831	0.0489671
850.965	0.0487485
851.099	0.049295
851.234	0.050388
851.368	0.0506066
851.502	0.049295
851.637	0.0507159
851.771	0.0485299
851.906	0.0473276
852.04	0.0490764
852.174	0.0479834
852.309	0.048202
852.443	0.0496229
852.577	0.0486392
852.712	0.048202
852.846	0.0501694
852.98	0.0487485
853.115	0.0484206
853.249	0.0491857
853.384	0.0502787
853.518	0.0495136
853.652	0.050388
853.787	0.0484206
853.921	0.0484206
854.055	0.0487485
854.19	0.0490764
854.324	0.0488578
854.458	0.049295
854.593	0.0501694
854.727	0.0487485
854.861	0.049295
854.996	0.0516996
855.13	0.0502787
855.265	0.0496229
855.399	0.0477648
855.533	0.0498415
855.668	0.0502787
855.802	0.0500601
855.936	0.0490764
856.071	0.0504973
856.205	0.0496229
856.339	0.0499508
856.474	0.0496229
856.608	0.0499508
856.742	0.0488578
856.877	0.0496229
857.011	0.0506066
857.145	0.0487485
857.28	0.0488578
857.414	0.0499508
857.549	0.0490764
857.683	0.0518089
857.817	0.0494043
857.952	0.0508252
858.086	0.0494043
858.22	0.0502787
858.355	0.0497322
858.489	0.0507159
858.623	0.0508252
858.758	0.048202
858.892	0.0485299
859.026	0.0495136
859.161	0.0496229
859.295	0.0494043
859.429	0.0484206
859.564	0.0491857
859.698	0.0498415
859.832	0.0501694
859.967	0.0487485
860.101	0.0478741
860.235	0.0497322
860.37	0.0495136
860.504	0.0501694
860.638	0.0494043
860.773	0.0484206
860.907	0.0486392
861.041	0.0510438
861.176	0.0504973
861.31	0.0508252
861.444	0.0484206
861.579	0.0500601
861.713	0.0495136
861.847	0.0499508
861.982	0.0506066
862.116	0.0484206
862.25	0.0490764
862.385	0.0504973
862.519	0.0501694
862.653	0.0478741
862.788	0.0494043
862.922	0.0485299
863.056	0.0501694
863.191	0.0500601
863.325	0.0494043
863.459	0.049295
863.594	0.0483113
863.728	0.0486392
863.862	0.0479834
863.997	0.0486392
864.131	0.050388
864.265	0.0487485
864.4	0.050388
864.534	0.0506066
864.668	0.049295
864.803	0.0500601
864.937	0.0501694
865.071	0.0487485
865.206	0.0491857
865.34	0.0495136
865.474	0.0501694
865.609	0.0496229
865.743	0.0499508
865.877	0.0494043
866.012	0.0484206
866.146	0.0489671
866.28	0.0488578
866.415	0.0496229
866.549	0.0487485
866.683	0.0488578
866.818	0.0508252
866.952	0.0501694
867.086	0.0495136
867.221	0.0488578
867.355	0.0499508
867.489	0.0497322
867.623	0.0501694
867.758	0.0498415
867.892	0.0484206
868.026	0.047109
868.161	0.0511531
868.295	0.0466718
868.429	0.0509345
868.564	0.0495136
868.698	0.0499508
868.832	0.0499508
868.967	0.0499508
869.101	0.0507159
869.235	0.0498415
869.37	0.0507159
869.504	0.0507159
869.638	0.048202
869.773	0.0498415
869.907	0.0475462
870.041	0.0499508
870.175	0.0488578
870.31	0.0499508
870.444	0.0486392
870.578	0.0496229
870.713	0.0497322
870.847	0.0494043
870.981	0.0497322
871.116	0.0489671
871.25	0.0512624
871.384	0.050388
871.519	0.0487485
871.653	0.0491857
871.787	0.0502787
871.921	0.0498415
872.056	0.0498415
872.19	0.0487485
872.324	0.0494043
872.459	0.0487485
872.593	0.0497322
872.727	0.0494043
872.862	0.0491857
872.996	0.0488578
873.13	0.0488578
873.264	0.0500601
873.399	0.049295
873.533	0.0488578
873.667	0.050388
873.802	0.0496229
873.936	0.0498415
874.07	0.0477648
874.205	0.0498415
874.339	0.0500601
874.473	0.0508252
874.607	0.0496229
874.742	0.0507159
874.876	0.0489671
875.01	0.0495136
875.145	0.0494043
875.279	0.0497322
875.413	0.0486392
875.548	0.0490764
875.682	0.0483113
875.816	0.0490764
875.95	0.0484206
876.085	0.0487485
876.219	0.0497322
876.353	0.0500601
876.488	0.0468904
876.622	0.0499508
876.756	0.0497322
876.89	0.0496229
877.025	0.0489671
877.159	0.0491857
877.293	0.049295
877.428	0.0486392
877.562	0.0495136
877.696	0.0491857
877.83	0.0502787
877.965	0.0494043
878.099	0.0501694
878.233	0.0485299
878.368	0.050388
878.502	0.0498415
878.636	0.0480927
878.77	0.0502787
878.905	0.0495136
879.039	0.0490764
879.173	0.0504973
879.308	0.0499508
879.442	0.0490764
879.576	0.0479834
879.71	0.0489671
879.845	0.0496229
879.979	0.049295
880.113	0.0486392
880.248	0.0484206
880.382	0.0496229
880.516	0.0501694
880.65	0.0497322
880.785	0.0500601
880.919	0.0496229
881.053	0.0496229
881.188	0.0502787
881.322	0.0504973
881.456	0.0484206
881.59	0.0475462
881.725	0.0483113
881.859	0.0504973
881.993	0.0496229
882.127	0.0488578
882.262	0.0502787
882.396	0.049295
882.53	0.0496229
882.665	0.0480927
882.799	0.0496229
882.933	0.0495136
883.067	0.0489671
883.202	0.048202
883.336	0.0498415
883.47	0.0494043
883.604	0.0487485
883.739	0.0506066
883.873	0.0491857
884.007	0.0507159
884.142	0.0509345
884.276	0.0478741
884.41	0.0507159
884.544	0.0499508
884.679	0.0489671
884.813	0.0508252
884.947	0.0497322
885.081	0.0511531
885.216	0.0485299
885.35	0.0501694
885.484	0.0509345
885.618	0.0497322
885.753	0.049295
885.887	0.049295
886.021	0.0508252
886.155	0.0479834
886.29	0.0508252
886.424	0.0495136
886.558	0.050388
886.693	0.0490764
886.827	0.0512624
886.961	0.0490764
887.095	0.0501694
887.23	0.0497322
887.364	0.0478741
887.498	0.0495136
887.632	0.0491857
887.767	0.0490764
887.901	0.0488578
888.035	0.0474369
888.169	0.0501694
888.304	0.0496229
888.438	0.0480927
888.572	0.049295
888.706	0.0495136
888.841	0.049295
888.975	0.0498415
889.109	0.0501694
889.243	0.0496229
889.378	0.0491857
889.512	0.0498415
889.646	0.0502787
889.78	0.0486392
889.915	0.0484206
890.049	0.0495136
890.183	0.0501694
890.317	0.0499508
890.452	0.0489671
890.586	0.0513717
890.72	0.0494043
890.854	0.0491857
890.989	0.0500601
891.123	0.0495136
891.257	0.0483113
891.391	0.0494043
891.526	0.0506066
891.66	0.049295
891.794	0.0487485
891.928	0.0502787
892.063	0.0508252
892.197	0.0507159
892.331	0.0491857
892.465	0.0489671
892.6	0.0487485
892.734	0.050388
892.868	0.0506066
893.002	0.0480927
893.137	0.0496229
893.271	0.0495136
893.405	0.049295
893.539	0.0494043
893.674	0.0491857
893.808	0.049295
893.942	0.0507159
894.076	0.0495136
894.21	0.049295
894.345	0.0494043
894.479	0.049295
894.613	0.0486392
894.747	0.0496229
894.882	0.0496229
895.016	0.0499508
895.15	0.0480927
895.284	0.0490764
895.419	0.049295
895.553	0.0496229
895.687	0.0500601
895.821	0.0495136
895.956	0.0498415
896.09	0.0495136
896.224	0.0496229
896.358	0.0496229
896.492	0.048202
896.627	0.0499508
896.761	0.0497322
896.895	0.0496229
897.029	0.0486392
897.164	0.0491857
897.298	0.0491857
897.432	0.0506066
897.566	0.0489671
897.701	0.0500601
897.835	0.0478741
897.969	0.0499508
898.103	0.0498415
898.237	0.0489671
898.372	0.0500601
898.506	0.0487485
898.64	0.0479834
898.774	0.0501694
898.909	0.0488578
899.043	0.0485299
899.177	0.0487485
899.311	0.0504973
899.445	0.0487485
899.58	0.0497322
899.714	0.0511531
899.848	0.0480927
899.982	0.0489671
900.117	0.0483113
900.251	0.0486392
900.385	0.0500601
900.519	0.049295
900.653	0.0491857
900.788	0.0500601
900.922	0.0487485
901.056	0.0497322
901.19	0.0488578
901.325	0.050388
901.459	0.0509345
901.593	0.0490764
901.727	0.0490764
901.861	0.0480927
901.996	0.0502787
902.13	0.0494043
902.264	0.0495136
902.398	0.049295
902.532	0.0508252
902.667	0.048202
902.801	0.049295
902.935	0.0486392
903.069	0.0487485
903.204	0.0511531
903.338	0.0502787
903.472	0.048202
903.606	0.048202
903.74	0.0485299
903.875	0.0513717
904.009	0.0499508
904.143	0.0496229
904.277	0.0491857
904.411	0.0495136
904.546	0.0494043
904.68	0.0500601
904.814	0.0480927
904.948	0.0508252
905.082	0.0479834
905.217	0.0487485
905.351	0.0490764
905.485	0.0491857
905.619	0.0500601
905.753	0.0483113
905.888	0.049295
906.022	0.0496229
906.156	0.0498415
906.29	0.0494043
906.424	0.0488578
906.559	0.0494043
906.693	0.049295
906.827	0.0500601
906.961	0.0476555
907.095	0.0490764
907.23	0.0494043
907.364	0.0497322
907.498	0.0496229
907.632	0.0501694
907.766	0.0497322
907.901	0.0489671
908.035	0.0502787
908.169	0.0497322
908.303	0.0496229
908.437	0.0499508
908.572	0.0487485
908.706	0.0485299
908.84	0.0483113
908.974	0.0496229
909.108	0.0496229
909.243	0.0499508
909.377	0.0488578
909.511	0.0507159
909.645	0.0490764
909.779	0.0479834
909.914	0.0489671
910.048	0.049295
910.182	0.0484206
910.316	0.0488578
910.45	0.0490764
910.585	0.0494043
910.719	0.0490764
910.853	0.0495136
910.987	0.0496229
911.121	0.0500601
911.255	0.0506066
911.39	0.0495136
911.524	0.0507159
911.658	0.0484206
911.792	0.0484206
911.926	0.048202
912.061	0.0488578
912.195	0.0504973
912.329	0.0474369
912.463	0.0491857
912.597	0.0491857
912.732	0.0498415
912.866	0.049295
913	0.050388
913.134	0.0497322
913.268	0.0497322
913.402	0.0501694
913.537	0.0504973
913.671	0.0485299
913.805	0.0491857
913.939	0.0506066
914.073	0.0511531
914.208	0.049295
914.342	0.0489671
914.476	0.0498415
914.61	0.0486392
914.744	0.049295
914.878	0.0502787
915.013	0.0487485
915.147	0.0483113
915.281	0.0502787
915.415	0.0506066
915.549	0.0488578
915.683	0.0491857
915.818	0.048202
915.952	0.0495136
916.086	0.0496229
916.22	0.0506066
916.354	0.0491857
916.488	0.0484206
916.623	0.0499508
916.757	0.0498415
916.891	0.0506066
917.025	0.0496229
917.159	0.048202
917.293	0.0495136
917.428	0.049295
917.562	0.0501694
917.696	0.0507159
917.83	0.0512624
917.964	0.0499508
918.098	0.0489671
918.233	0.0515903
918.367	0.0488578
918.501	0.0494043
918.635	0.0502787
918.769	0.0496229
918.903	0.0496229
919.038	0.0491857
919.172	0.0504973
919.306	0.0497322
919.44	0.0499508
919.574	0.0495136
919.708	0.0507159
919.843	0.0494043
919.977	0.0486392
920.111	0.0501694
920.245	0.0494043
920.379	0.0485299
920.513	0.0484206
920.648	0.0500601
920.782	0.0502787
920.916	0.0497322
921.05	0.0497322
921.184	0.0504973
921.318	0.049295
921.453	0.0498415
921.587	0.0496229
921.721	0.0489671
921.855	0.0501694
921.989	0.0478741
922.123	0.0487485
922.257	0.0487485
922.392	0.0491857
922.526	0.0475462
922.66	0.0498415
922.794	0.0502787
922.928	0.0478741
923.062	0.049295
923.197	0.0497322
923.331	0.0498415
923.465	0.0500601
923.599	0.0486392
923.733	0.0502787
923.867	0.0498415
924.001	0.0478741
924.136	0.0502787
924.27	0.0487485
924.404	0.0483113
924.538	0.0506066
924.672	0.0490764
924.806	0.0486392
924.94	0.0494043
925.075	0.0487485
925.209	0.0513717
925.343	0.0512624
925.477	0.0489671
925.611	0.0497322
925.745	0.0512624
925.879	0.0479834
926.014	0.0480927
926.148	0.0496229
926.282	0.0501694
926.416	0.049295
926.55	0.050388
926.684	0.0475462
926.818	0.0499508
926.953	0.0496229
927.087	0.049295
927.221	0.0487485
927.355	0.0490764
927.489	0.0487485
927.623	0.0483113
927.757	0.0491857
927.892	0.0501694
928.026	0.049295
928.16	0.050388
928.294	0.0491857
928.428	0.0494043
928.562	0.0501694
928.696	0.0498415
928.831	0.0501694
928.965	0.0491857
929.099	0.0485299
929.233	0.0512624
929.367	0.0491857
929.501	0.0495136
929.635	0.049295
929.769	0.0489671
929.904	0.0497322
930.038	0.049295
930.172	0.0496229
930.306	0.0496229
930.44	0.0491857
930.574	0.050388
930.708	0.0491857
930.843	0.0483113
930.977	0.0512624
931.111	0.0498415
931.245	0.0489671
931.379	0.0489671
931.513	0.0500601
931.647	0.0479834
931.781	0.0488578
931.916	0.0485299
932.05	0.0489671
932.184	0.0510438
932.318	0.0496229
932.452	0.0495136
932.586	0.050388
932.72	0.0484206
932.854	0.0486392
932.989	0.0497322
933.123	0.0500601
933.257	0.0498415
933.391	0.0508252
933.525	0.0496229
933.659	0.0491857
933.793	0.0504973
933.927	0.0512624
934.061	0.0494043
934.196	0.0485299
934.33	0.049295
934.464	0.0497322
934.598	0.049295
934.732	0.0495136
934.866	0.0501694
935	0.0498415
935.134	0.048202
935.269	0.0502787
935.403	0.0496229
935.537	0.0497322
935.671	0.0488578
935.805	0.0506066
935.939	0.0488578
936.073	0.048202
936.207	0.0495136
936.341	0.0499508
936.476	0.0496229
936.61	0.0485299
936.744	0.0476555
936.878	0.0496229
937.012	0.049295
937.146	0.0489671
937.28	0.0499508
937.414	0.0504973
937.548	0.0501694
937.683	0.0488578
937.817	0.0501694
937.951	0.0499508
938.085	0.0476555
938.219	0.0490764
938.353	0.0501694
938.487	0.0469997
938.621	0.0501694
938.755	0.0495136
938.889	0.0483113
939.024	0.0486392
939.158	0.049295
939.292	0.049295
939.426	0.0502787
939.56	0.0496229
939.694	0.0489671
939.828	0.0488578
939.962	0.0491857
940.096	0.0489671
940.231	0.0504973
940.365	0.050388
940.499	0.0495136
940.633	0.0502787
940.767	0.0478741
940.901	0.0502787
941.035	0.0488578
941.169	0.0499508
941.303	0.0484206
941.437	0.0498415
941.571	0.050388
941.706	0.0504973
941.84	0.0501694
941.974	0.049295
942.108	0.0497322
942.242	0.0498415
942.376	0.0477648
942.51	0.0497322
942.644	0.049295
942.778	0.0502787
942.912	0.0510438
943.047	0.048202
943.181	0.0500601
943.315	0.0498415
943.449	0.0491857
943.583	0.050388
943.717	0.0478741
943.851	0.0500601
943.985	0.0495136
944.119	0.0488578
944.253	0.0507159
944.387	0.0501694
944.522	0.0489671
944.656	0.0475462
944.79	0.0502787
944.924	0.0506066
945.058	0.0494043
945.192	0.050388
945.326	0.0504973
945.46	0.0491857
945.594	0.0500601
945.728	0.0498415
945.862	0.0499508
945.996	0.0494043
946.131	0.0478741
946.265	0.0491857
946.399	0.0507159
946.533	0.050388
946.667	0.0488578
946.801	0.0497322
946.935	0.0466718
947.069	0.0511531
947.203	0.0498415
947.337	0.0504973
947.471	0.0490764
947.605	0.0501694
947.739	0.0499508
947.874	0.0499508
948.008	0.0489671
948.142	0.0487485
948.276	0.0499508
948.41	0.0486392
948.544	0.049295
948.678	0.0500601
948.812	0.0476555
948.946	0.0500601
949.08	0.0496229
949.214	0.0496229
949.348	0.0484206
949.482	0.0507159
949.617	0.0497322
949.751	0.050388
949.885	0.0486392
950.019	0.0491857
950.153	0.0488578
950.287	0.0486392
950.421	0.0480927
950.555	0.050388
950.689	0.0488578
950.823	0.0498415
950.957	0.0487485
951.091	0.0489671
951.225	0.0486392
951.359	0.0496229
951.493	0.0491857
951.628	0.0488578
951.762	0.0487485
951.896	0.0497322
952.03	0.0490764
952.164	0.0495136
952.298	0.0485299
952.432	0.0497322
952.566	0.0477648
952.7	0.0487485
952.834	0.0496229
952.968	0.0506066
953.102	0.049295
953.236	0.0499508
953.37	0.0490764
953.504	0.0499508
953.639	0.0478741
953.773	0.0490764
953.907	0.0483113
954.041	0.0496229
954.175	0.0491857
954.309	0.0496229
954.443	0.0494043
954.577	0.0490764
954.711	0.0479834
954.845	0.0489671
954.979	0.0486392
955.113	0.0507159
955.247	0.0495136
955.381	0.0489671
955.515	0.0489671
955.649	0.0499508
955.783	0.0504973
955.917	0.0498415
956.052	0.0500601
956.186	0.0497322
956.32	0.0478741
956.454	0.0495136
956.588	0.0495136
956.722	0.0495136
956.856	0.0480927
956.99	0.0497322
957.124	0.0487485
957.258	0.0496229
957.392	0.0504973
957.526	0.0486392
957.66	0.0499508
957.794	0.0496229
957.928	0.0499508
958.062	0.0508252
958.196	0.0491857
958.33	0.0479834
958.464	0.0504973
958.598	0.0486392
958.733	0.0490764
958.867	0.0495136
959.001	0.0484206
959.135	0.0491857
959.269	0.0500601
959.403	0.0491857
959.537	0.050388
959.671	0.0483113
959.805	0.049295
959.939	0.0497322
960.073	0.049295
960.207	0.0498415
960.341	0.0489671
960.475	0.0490764
960.609	0.0480927
960.743	0.0504973
960.877	0.0486392
961.011	0.0496229
961.145	0.0495136
961.279	0.0491857
961.413	0.0491857
961.547	0.0488578
961.681	0.0507159
961.815	0.049295
961.949	0.0498415
962.083	0.0489671
962.218	0.0499508
962.352	0.0484206
962.486	0.0499508
962.62	0.0489671
962.754	0.0500601
962.888	0.0494043
963.022	0.0498415
963.156	0.0491857
963.29	0.0478741
963.424	0.0498415
963.558	0.0491857
963.692	0.0495136
963.826	0.0488578
963.96	0.0500601
964.094	0.0495136
964.228	0.050388
964.362	0.0497322
964.496	0.0486392
964.63	0.0487485
964.764	0.0491857
964.898	0.0487485
965.032	0.0484206
965.166	0.0497322
965.3	0.0498415
965.434	0.0497322
965.568	0.0500601
965.702	0.0507159
965.836	0.0507159
965.97	0.0488578
966.104	0.049295
966.238	0.0497322
966.372	0.0478741
966.506	0.0497322
966.64	0.0504973
966.774	0.0489671
966.908	0.048202
967.043	0.0483113
967.177	0.0499508
967.311	0.0509345
967.445	0.0490764
967.579	0.0496229
967.713	0.0476555
967.847	0.0502787
967.981	0.0495136
968.115	0.0485299
968.249	0.0491857
968.383	0.0500601
968.517	0.0488578
968.651	0.0485299
968.785	0.0499508
968.919	0.0495136
969.053	0.0512624
969.187	0.0479834
969.321	0.0480927
969.455	0.0500601
969.589	0.0498415
969.723	0.0483113
969.857	0.0489671
969.991	0.0483113
970.125	0.0497322
970.259	0.0497322
970.393	0.0487485
970.527	0.0506066
970.661	0.0498415
970.795	0.0487485
970.929	0.0496229
971.063	0.048202
971.197	0.049295
971.331	0.0474369
971.465	0.049295
971.599	0.0496229
971.733	0.0507159
971.867	0.0491857
972.001	0.0494043
972.135	0.0500601
972.269	0.0497322
972.403	0.0515903
972.537	0.0499508
972.671	0.0496229
972.805	0.0497322
972.939	0.0491857
973.073	0.0486392
973.207	0.0499508
973.341	0.0490764
973.475	0.049295
973.609	0.0489671
973.743	0.0484206
973.877	0.0490764
974.011	0.0494043
974.145	0.0499508
974.279	0.0485299
974.413	0.0494043
974.547	0.0501694
974.681	0.0496229
974.815	0.0484206
974.949	0.0507159
975.083	0.0494043
975.217	0.0502787
975.351	0.0496229
975.485	0.0497322
975.619	0.0489671
975.753	0.0489671
975.887	0.0502787
976.021	0.0509345
976.155	0.0495136
976.289	0.0495136
976.423	0.0508252
976.557	0.0489671
976.691	0.0490764
976.825	0.0498415
976.959	0.0494043
977.093	0.049295
977.227	0.0500601
977.361	0.0485299
977.495	0.0490764
977.629	0.0511531
977.763	0.0496229
977.897	0.0485299
978.031	0.0488578
978.165	0.0500601
978.299	0.0478741
978.433	0.0491857
978.567	0.0489671
978.701	0.050388
978.835	0.0496229
978.969	0.0510438
979.103	0.0506066
979.237	0.0504973
979.371	0.049295
979.505	0.0490764
979.639	0.0504973
979.773	0.0491857
979.907	0.0490764
980.041	0.0500601
980.175	0.0496229
980.308	0.0491857
980.442	0.0489671
980.576	0.0509345
980.71	0.0497322
980.844	0.0494043
980.978	0.049295
981.112	0.0496229
981.246	0.0490764
981.38	0.0489671
981.514	0.0495136
981.648	0.0488578
981.782	0.0495136
981.916	0.0477648
982.05	0.0487485
982.184	0.0495136
982.318	0.0497322
982.452	0.0494043
982.586	0.0496229
982.72	0.0495136
982.854	0.0496229
982.988	0.0501694
983.122	0.0488578
983.256	0.0488578
983.39	0.0491857
983.524	0.0487485
983.658	0.0490764
983.792	0.0478741
983.926	0.0490764
984.06	0.0500601
984.194	0.048202
984.328	0.0480927
984.462	0.050388
984.596	0.0507159
984.73	0.0498415
984.864	0.0497322
984.998	0.0498415
985.132	0.048202
985.265	0.0491857
985.399	0.0491857
985.533	0.0504973
985.667	0.0499508
985.801	0.0485299
985.935	0.0490764
986.069	0.051481
986.203	0.0491857
986.337	0.0490764
986.471	0.0512624
986.605	0.0494043
986.739	0.0488578
986.873	0.0486392
987.007	0.0499508
987.141	0.0488578
987.275	0.0487485
987.409	0.0490764
987.543	0.0477648
987.677	0.048202
987.811	0.0474369
987.945	0.050388
988.079	0.0499508
988.213	0.049295
988.347	0.049295
988.481	0.0499508
988.614	0.0498415
988.748	0.0491857
988.882	0.0485299
989.016	0.0496229
989.15	0.0488578
989.284	0.0498415
989.418	0.0494043
989.552	0.0483113
989.686	0.0491857
989.82	0.0497322
989.954	0.0486392
990.088	0.0483113
990.222	0.0499508
990.356	0.0491857
990.49	0.0484206
990.624	0.0494043
990.758	0.0489671
990.892	0.0508252
991.026	0.0495136
991.16	0.0491857
991.294	0.0488578
991.427	0.0483113
991.561	0.0501694
991.695	0.0484206
991.829	0.0491857
991.963	0.0479834
992.097	0.0485299
992.231	0.0496229
992.365	0.0501694
992.499	0.0506066
992.633	0.0502787
992.767	0.0508252
992.901	0.0494043
993.035	0.0501694
993.169	0.0479834
993.303	0.0491857
993.437	0.050388
993.571	0.0485299
993.704	0.049295
993.838	0.0496229
993.972	0.0498415
994.106	0.0497322
994.24	0.0504973
994.374	0.049295
994.508	0.0489671
994.642	0.0483113
994.776	0.0486392
994.91	0.049295
995.044	0.0486392
995.178	0.0475462
995.312	0.0480927
995.446	0.0504973
995.58	0.0510438
995.714	0.0496229
995.847	0.0496229
995.981	0.0476555
996.115	0.0498415
996.249	0.0490764
996.383	0.0483113
996.517	0.0500601
996.651	0.0491857
996.785	0.0488578
996.919	0.0483113
997.053	0.0486392
997.187	0.0501694
997.321	0.0491857
997.455	0.0488578
997.589	0.0494043
997.722	0.050388
997.856	0.0504973
997.99	0.0483113
998.124	0.048202
998.258	0.0512624
998.392	0.0491857
998.526	0.0499508
998.66	0.0501694
998.794	0.0501694
998.928	0.0486392
999.062	0.0496229
999.196	0.0488578
999.33	0.0499508
999.464	0.0501694
999.597	0.0499508
999.731	0.050388
999.865	0.0486392
999.999	0.0478741
1000.13	0.0480927
1000.27	0.0488578
1000.4	0.0467811
1000.53	0.0494043
1000.67	0.0485299
1000.8	0.0496229
1000.94	0.0519182
1001.07	0.0494043
1001.2	0.0485299
1001.34	0.0508252
1001.47	0.0499508
1001.61	0.0501694
1001.74	0.0491857
1001.87	0.0510438
1002.01	0.0476555
1002.14	0.0497322
1002.28	0.049295
1002.41	0.050388
1002.54	0.050388
1002.68	0.049295
1002.81	0.0486392
1002.95	0.0484206
1003.08	0.0496229
1003.21	0.0502787
1003.35	0.0487485
1003.48	0.0501694
1003.61	0.0496229
1003.75	0.050388
1003.88	0.049295
1004.02	0.0494043
1004.15	0.0485299
1004.28	0.0488578
1004.42	0.0483113
1004.55	0.0484206
1004.69	0.0507159
1004.82	0.0495136
1004.95	0.0498415
1005.09	0.0502787
1005.22	0.0498415
1005.36	0.0511531
1005.49	0.0491857
1005.62	0.0500601
1005.76	0.0496229
1005.89	0.0500601
1006.03	0.0495136
1006.16	0.0502787
1006.29	0.0491857
1006.43	0.0495136
1006.56	0.0511531
1006.69	0.0489671
1006.83	0.0496229
1006.96	0.0506066
1007.1	0.0489671
1007.23	0.0487485
1007.36	0.0500601
1007.5	0.0488578
1007.63	0.0472183
1007.77	0.0497322
1007.9	0.0488578
1008.03	0.0494043
1008.17	0.0501694
1008.3	0.0472183
1008.44	0.0501694
1008.57	0.0474369
1008.7	0.0483113
1008.84	0.0489671
1008.97	0.0487485
1009.1	0.0487485
1009.24	0.0511531
1009.37	0.0494043
1009.51	0.0497322
1009.64	0.0484206
1009.77	0.0490764
1009.91	0.0487485
1010.04	0.0489671
1010.18	0.0491857
1010.31	0.048202
1010.44	0.049295
1010.58	0.0494043
1010.71	0.0498415
1010.85	0.050388
1010.98	0.0502787
1011.11	0.0487485
1011.25	0.048202
1011.38	0.0495136
1011.51	0.0484206
1011.65	0.0486392
1011.78	0.0485299
1011.92	0.050388
1012.05	0.049295
1012.18	0.0498415
1012.32	0.0483113
1012.45	0.0498415
1012.59	0.049295
1012.72	0.0494043
1012.85	0.0496229
1012.99	0.0502787
1013.12	0.0480927
1013.26	0.049295
1013.39	0.0486392
1013.52	0.0501694
1013.66	0.0502787
1013.79	0.0491857
1013.92	0.0494043
1014.06	0.0494043
1014.19	0.0495136
1014.33	0.0495136
1014.46	0.0507159
1014.59	0.0508252
1014.73	0.0496229
1014.86	0.0502787
1015	0.0494043
1015.13	0.0488578
1015.26	0.0497322
1015.4	0.0486392
1015.53	0.0500601
1015.67	0.049295
1015.8	0.0490764
1015.93	0.0489671
1016.07	0.0495136
1016.2	0.0499508
1016.33	0.0488578
1016.47	0.0491857
1016.6	0.0486392
1016.74	0.0496229
1016.87	0.0487485
1017	0.050388
1017.14	0.0506066
1017.27	0.0486392
1017.41	0.0490764
1017.54	0.0490764
1017.67	0.0501694
1017.81	0.0494043
1017.94	0.0483113
1018.07	0.0495136
1018.21	0.0510438
1018.34	0.0496229
1018.48	0.0488578
1018.61	0.0485299
1018.74	0.0499508
1018.88	0.0491857
1019.01	0.0479834
1019.15	0.0491857
1019.28	0.0497322
1019.41	0.049295
1019.55	0.0499508
1019.68	0.050388
1019.82	0.0487485
1019.95	0.0495136
1020.08	0.0499508
1020.22	0.0502787
1020.35	0.0497322
1020.48	0.0507159
1020.62	0.0487485
1020.75	0.0504973
1020.89	0.0490764
1021.02	0.049295
1021.15	0.0504973
1021.29	0.0498415
1021.42	0.0484206
1021.56	0.0483113
1021.69	0.0506066
1021.82	0.0506066
1021.96	0.0488578
1022.09	0.049295
1022.22	0.050388
1022.36	0.0502787
1022.49	0.0496229
1022.63	0.0501694
1022.76	0.0488578
1022.89	0.0483113
1023.03	0.050388
1023.16	0.049295
1023.3	0.0502787
1023.43	0.0500601
1023.56	0.0494043
1023.7	0.0487485
1023.83	0.050388
1023.96	0.0478741
1024.1	0.0486392
1024.23	0.0487485
1024.37	0.0476555
1024.5	0.0506066
1024.63	0.0510438
1024.77	0.0501694
1024.9	0.0478741
1025.04	0.0509345
1025.17	0.0476555
1025.3	0.0484206
1025.44	0.0475462
1025.57	0.0494043
1025.7	0.0508252
1025.84	0.0489671
1025.97	0.0502787
1026.11	0.0499508
1026.24	0.0498415
1026.37	0.0501694
1026.51	0.0508252
1026.64	0.0486392
1026.78	0.0488578
1026.91	0.0487485
1027.04	0.0504973
1027.18	0.049295
1027.31	0.0491857
1027.44	0.0484206
1027.58	0.0508252
1027.71	0.0490764
1027.85	0.0508252
1027.98	0.0506066
1028.11	0.0490764
1028.25	0.0488578
1028.38	0.0494043
1028.52	0.0476555
1028.65	0.0475462
1028.78	0.0473276
1028.92	0.0490764
1029.05	0.0500601
1029.18	0.0501694
1029.32	0.0485299
1029.45	0.049295
1029.59	0.0489671
1029.72	0.0491857
1029.85	0.0501694
1029.99	0.0490764
1030.12	0.0508252
1030.26	0.0488578
1030.39	0.0483113
1030.52	0.0511531
1030.66	0.0491857
1030.79	0.0501694
1030.92	0.0488578
1031.06	0.0504973
1031.19	0.0504973
1031.33	0.0509345
1031.46	0.0496229
1031.59	0.0497322
1031.73	0.0491857
1031.86	0.0499508
1031.99	0.048202
1032.13	0.050388
1032.26	0.0509345
1032.4	0.0496229
1032.53	0.0489671
1032.66	0.0489671
1032.8	0.0497322
1032.93	0.0502787
1033.07	0.0510438
1033.2	0.0496229
1033.33	0.0496229
1033.47	0.0491857
1033.6	0.0507159
1033.73	0.0496229
1033.87	0.0494043
1034	0.0488578
1034.14	0.0497322
1034.27	0.0484206
1034.4	0.0486392
1034.54	0.0497322
1034.67	0.0499508
1034.81	0.0480927
1034.94	0.0494043
1035.07	0.0490764
1035.21	0.0489671
1035.34	0.0494043
1035.47	0.0499508
1035.61	0.0486392
1035.74	0.050388
1035.88	0.0497322
1036.01	0.0494043
1036.14	0.050388
1036.28	0.0512624
1036.41	0.0487485
1036.54	0.0500601
1036.68	0.0485299
1036.81	0.0499508
1036.95	0.0497322
1037.08	0.049295
1037.21	0.0499508
1037.35	0.0486392
1037.48	0.0488578
1037.62	0.0496229
1037.75	0.0487485
1037.88	0.0500601
1038.02	0.0494043
1038.15	0.0502787
1038.28	0.0494043
1038.42	0.049295
1038.55	0.0497322
1038.69	0.0490764
1038.82	0.0498415
1038.95	0.0497322
1039.09	0.0515903
1039.22	0.0489671
1039.35	0.050388
1039.49	0.051481
1039.62	0.0498415
1039.76	0.0483113
1039.89	0.0485299
1040.02	0.0509345
1040.16	0.0501694
1040.29	0.050388
1040.43	0.051481
1040.56	0.0495136
1040.69	0.0475462
1040.83	0.0495136
1040.96	0.0491857
1041.09	0.0502787
1041.23	0.0491857
1041.36	0.0495136
1041.5	0.0501694
1041.63	0.050388
1041.76	0.0502787
1041.9	0.0496229
1042.03	0.0507159
1042.16	0.0506066
1042.3	0.050388
1042.43	0.0491857
1042.57	0.0485299
1042.7	0.0485299
1042.83	0.0502787
1042.97	0.0498415
1043.1	0.048202
1043.23	0.0494043
1043.37	0.0497322
1043.5	0.0494043
1043.64	0.0487485
1043.77	0.0497322
1043.9	0.0495136
1044.04	0.0494043
1044.17	0.0490764
1044.31	0.0491857
1044.44	0.0487485
1044.57	0.0504973
1044.71	0.0478741
1044.84	0.0488578
1044.97	0.0502787
1045.11	0.0500601
1045.24	0.0487485
1045.38	0.0498415
1045.51	0.050388
1045.64	0.0479834
1045.78	0.0502787
1045.91	0.0502787
1046.04	0.048202
1046.18	0.049295
1046.31	0.048202
1046.45	0.0501694
1046.58	0.0488578
1046.71	0.0487485
1046.85	0.0483113
1046.98	0.0495136
1047.11	0.0501694
1047.25	0.0489671
1047.38	0.0489671
1047.52	0.0490764
1047.65	0.0483113
1047.78	0.0489671
1047.92	0.0484206
1048.05	0.0500601
1048.18	0.0489671
1048.32	0.0489671
1048.45	0.0495136
1048.59	0.0491857
1048.72	0.0478741
1048.85	0.0500601
1048.99	0.0483113
1049.12	0.049295
1049.25	0.0483113
1049.39	0.0487485
1049.52	0.0484206
1049.66	0.0488578
1049.79	0.0488578
1049.92	0.0508252
1050.06	0.0496229
1050.19	0.0500601
1050.33	0.0485299
1050.46	0.0484206
1050.59	0.0518089
1050.73	0.0504973
1050.86	0.049295
1050.99	0.0484206
1051.13	0.0495136
1051.26	0.0499508
1051.4	0.048202
1051.53	0.0506066
1051.66	0.0491857
1051.8	0.0489671
1051.93	0.049295
1052.06	0.048202
1052.2	0.0488578
1052.33	0.049295
1052.47	0.0489671
1052.6	0.0495136
1052.73	0.0489671
1052.87	0.0501694
1053	0.0490764
1053.13	0.0496229
1053.27	0.0487485
1053.4	0.049295
1053.54	0.0491857
1053.67	0.0484206
1053.8	0.0487485
1053.94	0.0490764
1054.07	0.0485299
1054.2	0.0480927
1054.34	0.0501694
1054.47	0.049295
1054.61	0.0497322
1054.74	0.0490764
1054.87	0.0491857
1055.01	0.0490764
1055.14	0.0502787
1055.27	0.0488578
1055.41	0.0489671
1055.54	0.0501694
1055.68	0.0498415
1055.81	0.0484206
1055.94	0.0502787
1056.08	0.048202
1056.21	0.0489671
1056.34	0.0485299
1056.48	0.0497322
1056.61	0.0508252
1056.75	0.0496229
1056.88	0.0483113
1057.01	0.0511531
1057.15	0.0499508
1057.28	0.0496229
1057.41	0.049295
1057.55	0.0491857
1057.68	0.0483113
1057.82	0.0495136
1057.95	0.0499508
1058.08	0.0478741
1058.22	0.0489671
1058.35	0.0497322
1058.48	0.0491857
1058.62	0.0489671
1058.75	0.0491857
1058.89	0.0510438
1059.02	0.0490764
1059.15	0.0475462
1059.29	0.0494043
1059.42	0.0488578
1059.55	0.0490764
1059.69	0.0500601
1059.82	0.0495136
1059.96	0.0488578
1060.09	0.0500601
1060.22	0.0501694
1060.36	0.0512624
1060.49	0.0501694
1060.62	0.0494043
1060.76	0.0489671
1060.89	0.0500601
1061.03	0.0511531
1061.16	0.0506066
1061.29	0.0486392
1061.43	0.0504973
1061.56	0.0490764
1061.69	0.0496229
1061.83	0.0473276
1061.96	0.0486392
1062.1	0.0495136
1062.23	0.0501694
1062.36	0.0497322
1062.5	0.0496229
1062.63	0.0484206
1062.76	0.0474369
1062.9	0.0497322
1063.03	0.0489671
1063.17	0.0480927
1063.3	0.0512624
1063.43	0.0501694
1063.57	0.0495136
1063.7	0.0509345
1063.83	0.0498415
1063.97	0.0502787
1064.1	0.0518089
1064.23	0.0491857
1064.37	0.0491857
1064.5	0.0494043
1064.64	0.0516996
1064.77	0.0494043
1064.9	0.0484206
1065.04	0.0502787
1065.17	0.0499508
1065.3	0.0495136
1065.44	0.0497322
1065.57	0.0496229
1065.71	0.0510438
1065.84	0.0500601
1065.97	0.0491857
1066.11	0.0496229
1066.24	0.048202
1066.37	0.050388
1066.51	0.0502787
1066.64	0.0477648
1066.78	0.0491857
1066.91	0.0489671
1067.04	0.049295
1067.18	0.050388
1067.31	0.0506066
1067.44	0.0489671
1067.58	0.0498415
1067.71	0.0495136
1067.85	0.0499508
1067.98	0.0497322
1068.11	0.0497322
1068.25	0.048202
1068.38	0.0501694
1068.51	0.0494043
1068.65	0.0502787
1068.78	0.049295
1068.92	0.0488578
1069.05	0.0489671
1069.18	0.0504973
1069.32	0.0499508
1069.45	0.049295
1069.58	0.0485299
1069.72	0.0507159
1069.85	0.0491857
1069.98	0.0507159
1070.12	0.049295
1070.25	0.0486392
1070.39	0.0487485
1070.52	0.0500601
1070.65	0.0495136
1070.79	0.0486392
1070.92	0.0474369
1071.05	0.0497322
1071.19	0.0484206
1071.32	0.050388
1071.46	0.0499508
1071.59	0.0502787
1071.72	0.0495136
1071.86	0.051481
1071.99	0.0484206
1072.12	0.0479834
1072.26	0.0502787
1072.39	0.049295
1072.53	0.0472183
1072.66	0.0500601
1072.79	0.0484206
1072.93	0.0488578
1073.06	0.0510438
1073.19	0.0494043
1073.33	0.0477648
1073.46	0.0497322
1073.59	0.0496229
1073.73	0.0491857
1073.86	0.0508252
1074	0.0495136
1074.13	0.0490764
1074.26	0.0512624
1074.4	0.0496229
1074.53	0.0501694
1074.66	0.0494043
1074.8	0.0504973
1074.93	0.0495136
1075.07	0.049295
1075.2	0.0510438
1075.33	0.0502787
1075.47	0.0500601
1075.6	0.0499508
1075.73	0.0495136
1075.87	0.0495136
1076	0.0499508
1076.14	0.049295
1076.27	0.0509345
1076.4	0.0497322
1076.54	0.0500601
1076.67	0.0489671
1076.8	0.0502787
1076.94	0.0489671
1077.07	0.0510438
1077.2	0.0491857
1077.34	0.050388
1077.47	0.0507159
1077.61	0.0498415
1077.74	0.0509345
1077.87	0.0490764
1078.01	0.0495136
1078.14	0.0509345
1078.27	0.0487485
1078.41	0.0480927
1078.54	0.0502787
1078.68	0.0479834
1078.81	0.0501694
1078.94	0.0496229
1079.08	0.0495136
1079.21	0.0491857
1079.34	0.0476555
1079.48	0.0486392
1079.61	0.0511531
1079.74	0.049295
1079.88	0.0496229
1080.01	0.048202
1080.15	0.0487485
1080.28	0.0483113
1080.41	0.0489671
1080.55	0.0487485
1080.68	0.0509345
1080.81	0.0499508
1080.95	0.0489671
1081.08	0.0500601
1081.22	0.0499508
1081.35	0.0499508
1081.48	0.0497322
1081.62	0.0479834
1081.75	0.0487485
1081.88	0.0478741
1082.02	0.0499508
1082.15	0.0496229
1082.28	0.049295
1082.42	0.0501694
1082.55	0.049295
1082.69	0.0495136
1082.82	0.0504973
1082.95	0.0498415
1083.09	0.0504973
1083.22	0.0497322
1083.35	0.0506066
1083.49	0.0494043
1083.62	0.0496229
1083.75	0.0495136
1083.89	0.0496229
1084.02	0.049295
1084.16	0.0494043
1084.29	0.0498415
1084.42	0.050388
1084.56	0.0484206
1084.69	0.0491857
1084.82	0.0489671
1084.96	0.0486392
1085.09	0.0495136
1085.23	0.049295
1085.36	0.0501694
1085.49	0.0489671
1085.63	0.0494043
1085.76	0.0504973
1085.89	0.0487485
1086.03	0.0500601
1086.16	0.0510438
1086.29	0.0486392
1086.43	0.0504973
1086.56	0.0499508
1086.7	0.0494043
1086.83	0.0487485
1086.96	0.0494043
1087.1	0.0509345
1087.23	0.0498415
1087.36	0.0502787
1087.5	0.0502787
1087.63	0.0499508
1087.76	0.050388
1087.9	0.0500601
1088.03	0.0494043
1088.17	0.0487485
1088.3	0.0497322
1088.43	0.050388
1088.57	0.0486392
1088.7	0.0506066
1088.83	0.0502787
1088.97	0.0491857
1089.1	0.0500601
1089.24	0.0490764
1089.37	0.0500601
1089.5	0.0495136
1089.64	0.0483113
1089.77	0.0499508
1089.9	0.0495136
1090.04	0.0507159
1090.17	0.0491857
1090.3	0.0500601
1090.44	0.0489671
1090.57	0.0495136
1090.71	0.0500601
1090.84	0.0506066
1090.97	0.0496229
1091.11	0.0497322
1091.24	0.0501694
1091.37	0.0502787
1091.51	0.0496229
1091.64	0.0495136
1091.77	0.0508252
1091.91	0.050388
1092.04	0.0497322
1092.18	0.048202
1092.31	0.0509345
1092.44	0.0483113
1092.58	0.0491857
1092.71	0.0490764
1092.84	0.0488578
1092.98	0.0507159
1093.11	0.0495136
1093.24	0.050388
1093.38	0.0516996
1093.51	0.0500601
1093.65	0.0486392
1093.78	0.049295
1093.91	0.0489671
1094.05	0.0500601
1094.18	0.0500601
1094.31	0.0495136
1094.45	0.0495136
1094.58	0.0487485
1094.71	0.049295
1094.85	0.051481
1094.98	0.0497322
1095.12	0.0502787
1095.25	0.050388
1095.38	0.0475462
1095.52	0.0504973
1095.65	0.0499508
1095.78	0.0475462
1095.92	0.0512624
1096.05	0.0486392
1096.18	0.0489671
1096.32	0.049295
1096.45	0.0496229
1096.59	0.0491857
1096.72	0.0497322
1096.85	0.0496229
1096.99	0.0501694
1097.12	0.0495136
1097.25	0.0496229
1097.39	0.0510438
1097.52	0.0491857
1097.65	0.0515903
1097.79	0.0491857
1097.92	0.0494043
1098.06	0.0484206
1098.19	0.0501694
1098.32	0.0504973
1098.46	0.0504973
1098.59	0.0489671
1098.72	0.0495136
1098.86	0.0498415
1098.99	0.0497322
1099.12	0.0495136
1099.26	0.0499508
1099.39	0.0497322
1099.53	0.0491857
1099.66	0.0497322
1099.79	0.0508252
1099.93	0.0504973
1100.06	0.0489671
1100.19	0.0496229
1100.33	0.0491857
1100.46	0.0495136
1100.59	0.0502787
1100.73	0.0491857
1100.86	0.0499508
1100.99	0.0504973
1101.13	0.048202
1101.26	0.0501694
1101.4	0.0483113
1101.53	0.0509345
1101.66	0.0510438
1101.8	0.0490764
1101.93	0.0511531
1102.06	0.0489671
1102.2	0.0488578
1102.33	0.0500601
1102.46	0.0491857
1102.6	0.0496229
1102.73	0.0499508
1102.87	0.0490764
1103	0.0509345
1103.13	0.0484206
1103.27	0.0500601
1103.4	0.0487485
1103.53	0.0488578
1103.67	0.0504973
1103.8	0.0501694
1103.93	0.049295
1104.07	0.047109
1104.2	0.0509345
1104.34	0.0498415
1104.47	0.0491857
1104.6	0.0502787
1104.74	0.0491857
1104.87	0.050388
1105	0.0495136
1105.14	0.0499508
1105.27	0.0483113
1105.4	0.0497322
1105.54	0.0509345
1105.67	0.0491857
1105.8	0.0506066
1105.94	0.0509345
1106.07	0.0500601
1106.21	0.0483113
1106.34	0.050388
1106.47	0.0487485
1106.61	0.0508252
1106.74	0.0498415
1106.87	0.0509345
1107.01	0.0495136
1107.14	0.0506066
1107.27	0.0485299
1107.41	0.0498415
1107.54	0.050388

