Source: Spectrum Viewer

Chart: Pulse Spectrum

Series: 
Wavelength (nm)	S (a.u.)
617.638	0.0405443
617.773	0.0418314
617.908	0.0417395
618.043	0.0420153
618.178	0.0417395
618.313	0.0427508
618.448	0.0408201
618.583	0.040912
618.718	0.0415556
618.853	0.0413717
618.988	0.0410959
619.123	0.0408201
619.258	0.0412798
619.394	0.0414636
619.529	0.0418314
619.664	0.0414636
619.799	0.0413717
619.934	0.0421072
620.069	0.0413717
620.204	0.0424749
620.339	0.0418314
620.474	0.0415556
620.609	0.0419233
620.744	0.0410959
620.879	0.0421072
621.014	0.0424749
621.149	0.0428427
621.284	0.0418314
621.419	0.0413717
621.554	0.0418314
621.689	0.0403604
621.825	0.0402685
621.96	0.0421072
622.095	0.0412798
622.23	0.0415556
622.365	0.0422911
622.5	0.0410959
622.635	0.0417395
622.77	0.0428427
622.905	0.0422911
623.04	0.0412798
623.175	0.0421991
623.31	0.0412798
623.445	0.0425669
623.58	0.0410959
623.715	0.0408201
623.85	0.0420153
623.985	0.0413717
624.12	0.0414636
624.255	0.0413717
624.39	0.0422911
624.525	0.0416475
624.661	0.0421072
624.796	0.0408201
624.931	0.0421991
625.066	0.0416475
625.201	0.0419233
625.336	0.0426588
625.471	0.0421072
625.606	0.041004
625.741	0.0411878
625.876	0.0418314
626.011	0.0421072
626.146	0.0417395
626.281	0.0415556
626.416	0.0408201
626.551	0.0414636
626.686	0.0431185
626.821	0.0426588
626.956	0.0427508
627.091	0.0420153
627.226	0.0405443
627.361	0.0424749
627.496	0.0420153
627.631	0.0414636
627.766	0.0421991
627.901	0.0419233
628.036	0.0421072
628.171	0.0415556
628.307	0.0413717
628.442	0.0421072
628.577	0.0408201
628.712	0.0418314
628.847	0.0414636
628.982	0.040912
629.117	0.0427508
629.252	0.0416475
629.387	0.0410959
629.522	0.0418314
629.657	0.0422911
629.792	0.0411878
629.927	0.0411878
630.062	0.0413717
630.197	0.0410959
630.332	0.0413717
630.467	0.0411878
630.602	0.040912
630.737	0.0398088
630.872	0.0406362
631.007	0.0406362
631.142	0.0417395
631.277	0.0411878
631.412	0.0424749
631.547	0.0415556
631.682	0.0421991
631.817	0.0414636
631.952	0.042383
632.087	0.0420153
632.222	0.042383
632.357	0.0410959
632.492	0.040912
632.627	0.0429346
632.762	0.0415556
632.897	0.0414636
633.032	0.0403604
633.167	0.0425669
633.302	0.040912
633.437	0.0401765
633.572	0.0407281
633.707	0.0411878
633.842	0.0424749
633.978	0.0429346
634.113	0.0405443
634.248	0.0426588
634.383	0.0432104
634.518	0.040912
634.653	0.0417395
634.788	0.0413717
634.923	0.0422911
635.058	0.0415556
635.193	0.0417395
635.328	0.0411878
635.463	0.0418314
635.598	0.0421072
635.733	0.0404523
635.868	0.0416475
636.003	0.0414636
636.138	0.0421991
636.273	0.0429346
636.408	0.040912
636.543	0.0410959
636.678	0.0411878
636.813	0.0419233
636.948	0.0421072
637.083	0.0432104
637.218	0.0422911
637.353	0.0408201
637.488	0.0402685
637.623	0.040912
637.758	0.0422911
637.893	0.0403604
638.028	0.0424749
638.163	0.0410959
638.298	0.0408201
638.433	0.0422911
638.568	0.0414636
638.703	0.0418314
638.838	0.0412798
638.973	0.0418314
639.108	0.0420153
639.243	0.0424749
639.378	0.0429346
639.513	0.0406362
639.648	0.0413717
639.783	0.040912
639.918	0.0421991
640.053	0.0432104
640.188	0.0419233
640.323	0.0422911
640.458	0.0403604
640.593	0.0415556
640.728	0.0408201
640.863	0.0411878
640.998	0.0418314
641.133	0.0413717
641.268	0.0421991
641.403	0.0421991
641.538	0.0412798
641.673	0.0419233
641.808	0.0411878
641.943	0.0416475
642.078	0.0420153
642.213	0.0418314
642.348	0.0420153
642.483	0.040912
642.618	0.0400846
642.753	0.040912
642.888	0.0418314
643.023	0.0424749
643.158	0.0420153
643.293	0.0421072
643.428	0.041004
643.563	0.0426588
643.698	0.040912
643.833	0.0414636
643.968	0.0421991
644.103	0.0411878
644.237	0.042383
644.372	0.0411878
644.507	0.0418314
644.642	0.0422911
644.777	0.0422911
644.912	0.0426588
645.047	0.0416475
645.182	0.0420153
645.317	0.0427508
645.452	0.0420153
645.587	0.0403604
645.722	0.0424749
645.857	0.0417395
645.992	0.0426588
646.127	0.041004
646.262	0.041004
646.397	0.0417395
646.532	0.0419233
646.667	0.0400846
646.802	0.0417395
646.937	0.0415556
647.072	0.0407281
647.207	0.0419233
647.342	0.0411878
647.477	0.0413717
647.612	0.0407281
647.747	0.0413717
647.882	0.0416475
648.017	0.0416475
648.152	0.0424749
648.287	0.0405443
648.422	0.0421991
648.557	0.0415556
648.692	0.0406362
648.827	0.0421072
648.962	0.0411878
649.097	0.0424749
649.232	0.0426588
649.367	0.0417395
649.502	0.0420153
649.637	0.0414636
649.772	0.0416475
649.906	0.0407281
650.041	0.0413717
650.176	0.0422911
650.311	0.0402685
650.446	0.0427508
650.581	0.0420153
650.716	0.0402685
650.851	0.0421072
650.986	0.0417395
651.121	0.0421991
651.256	0.0413717
651.391	0.0404523
651.526	0.041004
651.661	0.0418314
651.796	0.0405443
651.931	0.042383
652.066	0.041004
652.201	0.0428427
652.336	0.0413717
652.471	0.0413717
652.606	0.0421991
652.741	0.0421072
652.876	0.0410959
653.011	0.0407281
653.146	0.0413717
653.281	0.0415556
653.415	0.0432104
653.55	0.0415556
653.685	0.0418314
653.82	0.0419233
653.955	0.0421072
654.09	0.0428427
654.225	0.0431185
654.36	0.040912
654.495	0.0410959
654.63	0.0417395
654.765	0.040912
654.9	0.0412798
655.035	0.0404523
655.17	0.0422911
655.305	0.0405443
655.44	0.0417395
655.575	0.0405443
655.71	0.0416475
655.845	0.0418314
655.98	0.0417395
656.115	0.0414636
656.25	0.041004
656.384	0.0417395
656.519	0.0404523
656.654	0.0414636
656.789	0.0421991
656.924	0.0407281
657.059	0.0407281
657.194	0.0411878
657.329	0.040912
657.464	0.0420153
657.599	0.0416475
657.734	0.0422911
657.869	0.0419233
658.004	0.0412798
658.139	0.0416475
658.274	0.0413717
658.409	0.0406362
658.544	0.0419233
658.679	0.0419233
658.813	0.0419233
658.948	0.0405443
659.083	0.0406362
659.218	0.0422911
659.353	0.0421072
659.488	0.0425669
659.623	0.0410959
659.758	0.0431185
659.893	0.0418314
660.028	0.0421991
660.163	0.0417395
660.298	0.0417395
660.433	0.0418314
660.568	0.0416475
660.703	0.0418314
660.838	0.0421991
660.972	0.0421072
661.107	0.042383
661.242	0.040912
661.377	0.0416475
661.512	0.0413717
661.647	0.041004
661.782	0.0410959
661.917	0.0418314
662.052	0.0416475
662.187	0.0424749
662.322	0.0410959
662.457	0.0414636
662.592	0.041004
662.727	0.0410959
662.862	0.0417395
662.996	0.042383
663.131	0.0411878
663.266	0.042383
663.401	0.0413717
663.536	0.0421991
663.671	0.0402685
663.806	0.0414636
663.941	0.0410959
664.076	0.0415556
664.211	0.0419233
664.346	0.0412798
664.481	0.0422911
664.616	0.0421072
664.75	0.0410959
664.885	0.0410959
665.02	0.0435782
665.155	0.0433943
665.29	0.0402685
665.425	0.0421072
665.56	0.0415556
665.695	0.0410959
665.83	0.0428427
665.965	0.0413717
666.1	0.0405443
666.235	0.0407281
666.37	0.0415556
666.504	0.0417395
666.639	0.0412798
666.774	0.0408201
666.909	0.0411878
667.044	0.0411878
667.179	0.0408201
667.314	0.0416475
667.449	0.0413717
667.584	0.0412798
667.719	0.0425669
667.854	0.0412798
667.989	0.040912
668.123	0.0421072
668.258	0.0421072
668.393	0.0422911
668.528	0.0410959
668.663	0.0424749
668.798	0.0402685
668.933	0.0414636
669.068	0.0411878
669.203	0.0420153
669.338	0.0424749
669.473	0.0399007
669.607	0.0413717
669.742	0.0414636
669.877	0.0406362
670.012	0.0421072
670.147	0.0414636
670.282	0.0418314
670.417	0.0420153
670.552	0.0419233
670.687	0.0414636
670.822	0.0422911
670.957	0.041004
671.091	0.0419233
671.226	0.0417395
671.361	0.0418314
671.496	0.0422911
671.631	0.0404523
671.766	0.0413717
671.901	0.0401765
672.036	0.0413717
672.171	0.0413717
672.306	0.0419233
672.44	0.0419233
672.575	0.0410959
672.71	0.0414636
672.845	0.0432104
672.98	0.0407281
673.115	0.0416475
673.25	0.0422911
673.385	0.0414636
673.52	0.0406362
673.655	0.042383
673.789	0.0421991
673.924	0.0415556
674.059	0.0421072
674.194	0.0419233
674.329	0.0410959
674.464	0.0412798
674.599	0.0426588
674.734	0.0421991
674.869	0.0418314
675.003	0.0414636
675.138	0.0418314
675.273	0.040912
675.408	0.0426588
675.543	0.0421072
675.678	0.0420153
675.813	0.0415556
675.948	0.041004
676.083	0.0411878
676.217	0.0403604
676.352	0.0413717
676.487	0.0417395
676.622	0.0406362
676.757	0.0413717
676.892	0.0418314
677.027	0.0417395
677.162	0.0425669
677.297	0.0421072
677.431	0.0411878
677.566	0.0410959
677.701	0.0412798
677.836	0.0421991
677.971	0.0417395
678.106	0.0422911
678.241	0.0419233
678.376	0.0424749
678.511	0.0417395
678.645	0.0399926
678.78	0.0408201
678.915	0.0415556
679.05	0.0419233
679.185	0.0419233
679.32	0.0418314
679.455	0.0417395
679.59	0.0421072
679.724	0.0413717
679.859	0.0406362
679.994	0.0420153
680.129	0.0412798
680.264	0.0410959
680.399	0.0414636
680.534	0.0422911
680.669	0.0441298
680.803	0.0408201
680.938	0.0418314
681.073	0.0410959
681.208	0.0417395
681.343	0.0422911
681.478	0.0418314
681.613	0.0415556
681.748	0.0415556
681.882	0.0408201
682.017	0.0407281
682.152	0.0411878
682.287	0.0412798
682.422	0.0414636
682.557	0.0413717
682.692	0.0421072
682.827	0.0415556
682.961	0.0408201
683.096	0.0433943
683.231	0.0418314
683.366	0.0420153
683.501	0.0411878
683.636	0.040912
683.771	0.0406362
683.906	0.0426588
684.04	0.0414636
684.175	0.0411878
684.31	0.0407281
684.445	0.0415556
684.58	0.0407281
684.715	0.0418314
684.85	0.0422911
684.984	0.0421072
685.119	0.0431185
685.254	0.0406362
685.389	0.0428427
685.524	0.041004
685.659	0.0422911
685.794	0.0415556
685.928	0.0406362
686.063	0.0414636
686.198	0.0416475
686.333	0.0421991
686.468	0.0406362
686.603	0.0421072
686.738	0.0424749
686.872	0.0414636
687.007	0.0413717
687.142	0.0418314
687.277	0.0411878
687.412	0.0422911
687.547	0.0407281
687.682	0.0407281
687.816	0.0428427
687.951	0.0416475
688.086	0.040912
688.221	0.0421072
688.356	0.0426588
688.491	0.0403604
688.626	0.0417395
688.76	0.0407281
688.895	0.0416475
689.03	0.0422911
689.165	0.0432104
689.3	0.0415556
689.435	0.0413717
689.57	0.0412798
689.704	0.0416475
689.839	0.0411878
689.974	0.0412798
690.109	0.0407281
690.244	0.0424749
690.379	0.0414636
690.513	0.0418314
690.648	0.0416475
690.783	0.0407281
690.918	0.0410959
691.053	0.0406362
691.188	0.0406362
691.323	0.0418314
691.457	0.0408201
691.592	0.0419233
691.727	0.0413717
691.862	0.0407281
691.997	0.0408201
692.132	0.0420153
692.266	0.0414636
692.401	0.0407281
692.536	0.0412798
692.671	0.0413717
692.806	0.0418314
692.941	0.0432104
693.075	0.0406362
693.21	0.0408201
693.345	0.040912
693.48	0.0414636
693.615	0.0407281
693.75	0.0413717
693.885	0.0414636
694.019	0.0421072
694.154	0.0419233
694.289	0.0422911
694.424	0.0406362
694.559	0.0414636
694.694	0.0413717
694.828	0.0422911
694.963	0.0427508
695.098	0.0420153
695.233	0.0422911
695.368	0.0405443
695.503	0.0407281
695.637	0.0401765
695.772	0.0407281
695.907	0.0424749
696.042	0.0412798
696.177	0.0417395
696.312	0.0420153
696.446	0.0417395
696.581	0.0420153
696.716	0.0416475
696.851	0.040912
696.986	0.0415556
697.12	0.0410959
697.255	0.0424749
697.39	0.0411878
697.525	0.0415556
697.66	0.0412798
697.795	0.0412798
697.929	0.0426588
698.064	0.0430266
698.199	0.0418314
698.334	0.040912
698.469	0.0426588
698.604	0.0414636
698.738	0.0415556
698.873	0.042383
699.008	0.0415556
699.143	0.0413717
699.278	0.0413717
699.412	0.0413717
699.547	0.0417395
699.682	0.0418314
699.817	0.040912
699.952	0.0433943
700.087	0.041004
700.221	0.0425669
700.356	0.042383
700.491	0.0399926
700.626	0.0413717
700.761	0.0416475
700.895	0.0410959
701.03	0.0411878
701.165	0.0424749
701.3	0.040912
701.435	0.0404523
701.57	0.0399007
701.704	0.0401765
701.839	0.0419233
701.974	0.0413717
702.109	0.041004
702.244	0.0413717
702.378	0.0421991
702.513	0.0419233
702.648	0.0416475
702.783	0.0416475
702.918	0.0425669
703.052	0.041004
703.187	0.0415556
703.322	0.0401765
703.457	0.0427508
703.592	0.0419233
703.727	0.0418314
703.861	0.0431185
703.996	0.0411878
704.131	0.0407281
704.266	0.0413717
704.401	0.0415556
704.535	0.041004
704.67	0.0408201
704.805	0.0420153
704.94	0.0414636
705.075	0.0418314
705.209	0.0411878
705.344	0.0417395
705.479	0.0421991
705.614	0.0419233
705.749	0.0418314
705.883	0.0417395
706.018	0.0404523
706.153	0.0413717
706.288	0.0414636
706.423	0.0412798
706.557	0.0431185
706.692	0.0412798
706.827	0.0428427
706.962	0.0424749
707.097	0.0415556
707.231	0.0415556
707.366	0.0414636
707.501	0.0418314
707.636	0.040912
707.771	0.0418314
707.905	0.0424749
708.04	0.0428427
708.175	0.0412798
708.31	0.0411878
708.445	0.0407281
708.579	0.0421072
708.714	0.0419233
708.849	0.0421991
708.984	0.0410959
709.118	0.0407281
709.253	0.0427508
709.388	0.0405443
709.523	0.0417395
709.658	0.0415556
709.792	0.0411878
709.927	0.0421991
710.062	0.0431185
710.197	0.0408201
710.332	0.0412798
710.466	0.041004
710.601	0.0421072
710.736	0.0419233
710.871	0.0417395
711.006	0.0413717
711.14	0.0407281
711.275	0.0406362
711.41	0.0417395
711.545	0.0416475
711.679	0.0411878
711.814	0.0424749
711.949	0.0415556
712.084	0.0419233
712.219	0.0408201
712.353	0.0426588
712.488	0.0419233
712.623	0.0418314
712.758	0.040912
712.892	0.0416475
713.027	0.0415556
713.162	0.040912
713.297	0.040912
713.432	0.0406362
713.566	0.0421991
713.701	0.042383
713.836	0.0420153
713.971	0.0416475
714.105	0.0408201
714.24	0.0412798
714.375	0.0432104
714.51	0.0413717
714.645	0.041004
714.779	0.0424749
714.914	0.0413717
715.049	0.042383
715.184	0.0401765
715.318	0.0420153
715.453	0.0416475
715.588	0.0413717
715.723	0.042383
715.858	0.0413717
715.992	0.0410959
716.127	0.0406362
716.262	0.0411878
716.397	0.0413717
716.531	0.0407281
716.666	0.0413717
716.801	0.0413717
716.936	0.0412798
717.07	0.0406362
717.205	0.0399926
717.34	0.0418314
717.475	0.0411878
717.61	0.0421072
717.744	0.0415556
717.879	0.0421072
718.014	0.0418314
718.149	0.0424749
718.283	0.0420153
718.418	0.0416475
718.553	0.0414636
718.688	0.0413717
718.822	0.0421991
718.957	0.0412798
719.092	0.0413717
719.227	0.0408201
719.361	0.0411878
719.496	0.0416475
719.631	0.041004
719.766	0.0402685
719.9	0.0414636
720.035	0.0406362
720.17	0.0417395
720.305	0.0407281
720.44	0.0418314
720.574	0.0416475
720.709	0.0419233
720.844	0.0421072
720.979	0.0422911
721.113	0.040912
721.248	0.0422911
721.383	0.0421072
721.518	0.0417395
721.652	0.0410959
721.787	0.0420153
721.922	0.0416475
722.057	0.0410959
722.191	0.0419233
722.326	0.0402685
722.461	0.0427508
722.596	0.0421991
722.73	0.040912
722.865	0.0430266
723	0.0417395
723.135	0.0421991
723.269	0.0410959
723.404	0.0420153
723.539	0.0420153
723.674	0.0419233
723.808	0.0414636
723.943	0.0416475
724.078	0.0401765
724.213	0.0419233
724.347	0.0422911
724.482	0.0419233
724.617	0.0429346
724.752	0.0416475
724.886	0.042383
725.021	0.0407281
725.156	0.0416475
725.291	0.0417395
725.425	0.0413717
725.56	0.0427508
725.695	0.0412798
725.829	0.0402685
725.964	0.0411878
726.099	0.0410959
726.234	0.0418314
726.368	0.0418314
726.503	0.0414636
726.638	0.0417395
726.773	0.0415556
726.907	0.0415556
727.042	0.0424749
727.177	0.041004
727.312	0.0416475
727.446	0.0413717
727.581	0.0407281
727.716	0.0412798
727.851	0.0417395
727.985	0.0424749
728.12	0.0417395
728.255	0.0415556
728.389	0.0407281
728.524	0.0417395
728.659	0.0419233
728.794	0.0421072
728.928	0.0414636
729.063	0.0414636
729.198	0.0415556
729.333	0.0415556
729.467	0.0416475
729.602	0.0416475
729.737	0.0415556
729.872	0.0419233
730.006	0.0418314
730.141	0.0411878
730.276	0.0425669
730.41	0.0416475
730.545	0.0402685
730.68	0.0404523
730.815	0.0410959
730.949	0.0427508
731.084	0.0421991
731.219	0.0428427
731.354	0.040912
731.488	0.0424749
731.623	0.0399926
731.758	0.0415556
731.892	0.0412798
732.027	0.0417395
732.162	0.041004
732.297	0.0424749
732.431	0.0414636
732.566	0.0424749
732.701	0.0404523
732.835	0.0415556
732.97	0.0421991
733.105	0.0415556
733.24	0.0432104
733.374	0.0416475
733.509	0.0416475
733.644	0.041004
733.779	0.0411878
733.913	0.0421072
734.048	0.0418314
734.183	0.0401765
734.317	0.0416475
734.452	0.0421072
734.587	0.0424749
734.722	0.0412798
734.856	0.0406362
734.991	0.0414636
735.126	0.0401765
735.26	0.0418314
735.395	0.040912
735.53	0.0417395
735.665	0.0414636
735.799	0.0415556
735.934	0.0421991
736.069	0.0431185
736.203	0.0412798
736.338	0.0415556
736.473	0.0433943
736.607	0.0411878
736.742	0.0403604
736.877	0.0417395
737.012	0.042383
737.146	0.042383
737.281	0.0411878
737.416	0.0419233
737.55	0.0416475
737.685	0.0407281
737.82	0.0417395
737.955	0.0428427
738.089	0.0426588
738.224	0.0421072
738.359	0.0417395
738.493	0.0419233
738.628	0.0405443
738.763	0.0424749
738.897	0.0406362
739.032	0.0408201
739.167	0.0421072
739.302	0.0408201
739.436	0.0415556
739.571	0.0413717
739.706	0.0415556
739.84	0.0427508
739.975	0.0412798
740.11	0.0417395
740.244	0.0415556
740.379	0.0433024
740.514	0.040912
740.649	0.0405443
740.783	0.0402685
740.918	0.0419233
741.053	0.0417395
741.187	0.0412798
741.322	0.0419233
741.457	0.0426588
741.591	0.0416475
741.726	0.0415556
741.861	0.0424749
741.996	0.0426588
742.13	0.0418314
742.265	0.0415556
742.4	0.041004
742.534	0.0420153
742.669	0.0422911
742.804	0.0433024
742.938	0.0429346
743.073	0.0421072
743.208	0.0421991
743.342	0.0405443
743.477	0.0412798
743.612	0.0422911
743.747	0.0406362
743.881	0.0413717
744.016	0.0406362
744.151	0.0420153
744.285	0.0416475
744.42	0.0432104
744.555	0.0413717
744.689	0.0410959
744.824	0.0418314
744.959	0.0414636
745.093	0.0406362
745.228	0.0419233
745.363	0.0420153
745.497	0.0411878
745.632	0.0421072
745.767	0.0420153
745.901	0.0412798
746.036	0.0412798
746.171	0.0410959
746.305	0.0428427
746.44	0.0410959
746.575	0.0415556
746.71	0.0407281
746.844	0.040912
746.979	0.0399926
747.114	0.0419233
747.248	0.0416475
747.383	0.0421072
747.518	0.0414636
747.652	0.0413717
747.787	0.0413717
747.922	0.0406362
748.056	0.0437621
748.191	0.040912
748.326	0.041004
748.46	0.0428427
748.595	0.0421072
748.73	0.0411878
748.864	0.0424749
748.999	0.0416475
749.134	0.0427508
749.268	0.0413717
749.403	0.0406362
749.538	0.040912
749.672	0.0416475
749.807	0.0415556
749.942	0.0413717
750.076	0.0412798
750.211	0.0417395
750.346	0.0420153
750.48	0.041004
750.615	0.0417395
750.75	0.0433024
750.884	0.0425669
751.019	0.0417395
751.154	0.0408201
751.288	0.0411878
751.423	0.0411878
751.558	0.0399007
751.692	0.0420153
751.827	0.0412798
751.962	0.0412798
752.096	0.0420153
752.231	0.0418314
752.366	0.0415556
752.5	0.042383
752.635	0.0417395
752.77	0.0411878
752.904	0.0417395
753.039	0.040912
753.174	0.0421991
753.308	0.0417395
753.443	0.0400846
753.578	0.0415556
753.712	0.0418314
753.847	0.0429346
753.982	0.0411878
754.116	0.0413717
754.251	0.040912
754.386	0.042383
754.52	0.0414636
754.655	0.0413717
754.79	0.0402685
754.924	0.0404523
755.059	0.0415556
755.194	0.0422911
755.328	0.0413717
755.463	0.040912
755.597	0.0415556
755.732	0.0415556
755.867	0.041004
756.001	0.040912
756.136	0.0412798
756.271	0.0419233
756.405	0.0408201
756.54	0.0414636
756.675	0.0399926
756.809	0.0410959
756.944	0.0407281
757.079	0.0421072
757.213	0.0405443
757.348	0.0424749
757.483	0.0420153
757.617	0.0416475
757.752	0.0411878
757.887	0.0417395
758.021	0.0406362
758.156	0.042383
758.29	0.0415556
758.425	0.0413717
758.56	0.041004
758.694	0.0418314
758.829	0.0411878
758.964	0.0415556
759.098	0.0422911
759.233	0.0412798
759.368	0.0419233
759.502	0.0433024
759.637	0.0420153
759.772	0.0406362
759.906	0.042383
760.041	0.0419233
760.175	0.0411878
760.31	0.0411878
760.445	0.0418314
760.579	0.0431185
760.714	0.0411878
760.849	0.0417395
760.983	0.0419233
761.118	0.0417395
761.253	0.0411878
761.387	0.0406362
761.522	0.0424749
761.656	0.0424749
761.791	0.0412798
761.926	0.0413717
762.06	0.0407281
762.195	0.0412798
762.33	0.042383
762.464	0.0424749
762.599	0.0413717
762.733	0.0412798
762.868	0.0415556
763.003	0.0414636
763.137	0.0414636
763.272	0.0416475
763.407	0.041004
763.541	0.042383
763.676	0.041004
763.811	0.0410959
763.945	0.0419233
764.08	0.0413717
764.214	0.040912
764.349	0.0421072
764.484	0.0417395
764.618	0.0433024
764.753	0.0410959
764.888	0.0413717
765.022	0.0428427
765.157	0.0411878
765.291	0.0428427
765.426	0.0411878
765.561	0.0421072
765.695	0.0412798
765.83	0.0416475
765.965	0.0424749
766.099	0.0412798
766.234	0.0414636
766.368	0.0414636
766.503	0.0405443
766.638	0.0414636
766.772	0.0419233
766.907	0.0410959
767.041	0.0421991
767.176	0.0414636
767.311	0.042383
767.445	0.0420153
767.58	0.0429346
767.715	0.0420153
767.849	0.0418314
767.984	0.0419233
768.118	0.0416475
768.253	0.0421072
768.388	0.0413717
768.522	0.0417395
768.657	0.0413717
768.791	0.0416475
768.926	0.0422911
769.061	0.0406362
769.195	0.0419233
769.33	0.0419233
769.465	0.0403604
769.599	0.0421991
769.734	0.0419233
769.868	0.0414636
770.003	0.0404523
770.138	0.0415556
770.272	0.0408201
770.407	0.0417395
770.541	0.0432104
770.676	0.042383
770.811	0.0414636
770.945	0.0407281
771.08	0.0418314
771.214	0.0417395
771.349	0.0428427
771.484	0.0412798
771.618	0.0428427
771.753	0.0414636
771.887	0.0413717
772.022	0.0428427
772.157	0.0418314
772.291	0.0407281
772.426	0.0421991
772.56	0.0414636
772.695	0.0419233
772.83	0.0407281
772.964	0.0413717
773.099	0.0404523
773.233	0.0424749
773.368	0.0419233
773.503	0.0417395
773.637	0.0407281
773.772	0.0416475
773.906	0.0427508
774.041	0.0411878
774.176	0.0420153
774.31	0.0415556
774.445	0.0415556
774.579	0.0416475
774.714	0.0417395
774.849	0.0406362
774.983	0.0411878
775.118	0.0419233
775.252	0.0417395
775.387	0.0421072
775.522	0.0419233
775.656	0.0411878
775.791	0.0421072
775.925	0.0413717
776.06	0.039533
776.195	0.0428427
776.329	0.0426588
776.464	0.040912
776.598	0.0414636
776.733	0.0408201
776.868	0.040912
777.002	0.0400846
777.137	0.0427508
777.271	0.042383
777.406	0.0416475
777.54	0.0416475
777.675	0.0420153
777.81	0.0426588
777.944	0.0416475
778.079	0.0414636
778.213	0.0418314
778.348	0.0415556
778.483	0.0416475
778.617	0.0432104
778.752	0.0410959
778.886	0.0407281
779.021	0.0421072
779.155	0.042383
779.29	0.0416475
779.425	0.0421072
779.559	0.0428427
779.694	0.0410959
779.828	0.0425669
779.963	0.0418314
780.098	0.0415556
780.232	0.0410959
780.367	0.0407281
780.501	0.0410959
780.636	0.0421072
780.77	0.0413717
780.905	0.0427508
781.04	0.0410959
781.174	0.0413717
781.309	0.0425669
781.443	0.0410959
781.578	0.0417395
781.712	0.0414636
781.847	0.0413717
781.982	0.0422911
782.116	0.0401765
782.251	0.0415556
782.385	0.0417395
782.52	0.0418314
782.654	0.0415556
782.789	0.0408201
782.924	0.0414636
783.058	0.0426588
783.193	0.0422911
783.327	0.0413717
783.462	0.0417395
783.596	0.0414636
783.731	0.0416475
783.866	0.0425669
784	0.0414636
784.135	0.0407281
784.269	0.0424749
784.404	0.0426588
784.538	0.0414636
784.673	0.0425669
784.808	0.0413717
784.942	0.0407281
785.077	0.0411878
785.211	0.0416475
785.346	0.0419233
785.48	0.0418314
785.615	0.0421072
785.75	0.0417395
785.884	0.0414636
786.019	0.0430266
786.153	0.0410959
786.288	0.0420153
786.422	0.0428427
786.557	0.0415556
786.691	0.040912
786.826	0.0421991
786.961	0.0408201
787.095	0.042383
787.23	0.040912
787.364	0.0417395
787.499	0.0412798
787.633	0.0410959
787.768	0.0420153
787.902	0.040912
788.037	0.0425669
788.172	0.040912
788.306	0.0418314
788.441	0.0410959
788.575	0.0421072
788.71	0.040912
788.844	0.0413717
788.979	0.0413717
789.113	0.0428427
789.248	0.0422911
789.383	0.0418314
789.517	0.0415556
789.652	0.0431185
789.786	0.0407281
789.921	0.0419233
790.055	0.0419233
790.19	0.0418314
790.324	0.0417395
790.459	0.0420153
790.594	0.0407281
790.728	0.0418314
790.863	0.0421991
790.997	0.0424749
791.132	0.0417395
791.266	0.0414636
791.401	0.040912
791.535	0.0418314
791.67	0.0424749
791.804	0.0422911
791.939	0.040912
792.074	0.0411878
792.208	0.0425669
792.343	0.0426588
792.477	0.0407281
792.612	0.0425669
792.746	0.0420153
792.881	0.0414636
793.015	0.0427508
793.15	0.0417395
793.284	0.0420153
793.419	0.0421991
793.553	0.0408201
793.688	0.0424749
793.823	0.0412798
793.957	0.0428427
794.092	0.0417395
794.226	0.040912
794.361	0.0413717
794.495	0.0424749
794.63	0.0417395
794.764	0.0415556
794.899	0.0421072
795.033	0.0413717
795.168	0.0426588
795.302	0.041004
795.437	0.0415556
795.572	0.0421991
795.706	0.0426588
795.841	0.0419233
795.975	0.0422911
796.11	0.0427508
796.244	0.0419233
796.379	0.0421991
796.513	0.0417395
796.648	0.0418314
796.782	0.0416475
796.917	0.0419233
797.051	0.0428427
797.186	0.041004
797.32	0.0412798
797.455	0.0428427
797.589	0.041004
797.724	0.040912
797.859	0.0433024
797.993	0.0426588
798.128	0.0415556
798.262	0.0421991
798.397	0.0435782
798.531	0.0414636
798.666	0.0422911
798.8	0.0407281
798.935	0.0421991
799.069	0.0416475
799.204	0.0415556
799.338	0.0425669
799.473	0.0416475
799.607	0.0413717
799.742	0.0424749
799.876	0.0411878
800.011	0.042383
800.145	0.0424749
800.28	0.042383
800.414	0.0415556
800.549	0.040912
800.683	0.0413717
800.818	0.0411878
800.953	0.0413717
801.087	0.0411878
801.222	0.0426588
801.356	0.0417395
801.491	0.0421072
801.625	0.0402685
801.76	0.0426588
801.894	0.0418314
802.029	0.0417395
802.163	0.0406362
802.298	0.0420153
802.432	0.0416475
802.567	0.0422911
802.701	0.0421991
802.836	0.0417395
802.97	0.0427508
803.105	0.0410959
803.239	0.0433024
803.374	0.0430266
803.508	0.0429346
803.643	0.0418314
803.777	0.0421072
803.912	0.0421991
804.046	0.042383
804.181	0.0417395
804.315	0.0429346
804.45	0.0433943
804.584	0.0433024
804.719	0.0424749
804.853	0.042383
804.988	0.0414636
805.122	0.0432104
805.257	0.0422911
805.391	0.0414636
805.526	0.0426588
805.66	0.0421991
805.795	0.042383
805.929	0.0420153
806.064	0.042383
806.198	0.0429346
806.333	0.0430266
806.467	0.0427508
806.602	0.043854
806.736	0.0425669
806.871	0.0427508
807.005	0.0439459
807.14	0.0419233
807.274	0.0432104
807.409	0.0439459
807.543	0.0445895
807.678	0.0446814
807.812	0.0452331
807.947	0.0445895
808.081	0.0467041
808.216	0.0446814
808.35	0.0460605
808.485	0.0473476
808.619	0.0451411
808.754	0.0476234
808.888	0.0505654
809.023	0.0493702
809.157	0.0486347
809.292	0.0490025
809.426	0.0513928
809.561	0.0519445
809.695	0.0544268
809.83	0.0572768
809.964	0.065735
810.099	0.0734578
810.233	0.0873403
810.368	0.186173
810.502	0.273605
810.637	0.292728
810.771	0.480555
810.906	0.558518
811.04	0.680151
811.175	0.853084
811.309	1
811.444	0.916889
811.578	0.730257
811.713	0.864669
811.847	0.455456
811.982	0.297049
812.116	0.553461
812.251	0.471821
812.385	0.160982
812.519	0.0698722
812.654	0.0667463
812.788	0.108854
812.923	0.273789
813.057	0.294842
813.192	0.150501
813.326	0.0597591
813.461	0.0464282
813.595	0.0473476
813.73	0.0456008
813.864	0.0459686
813.999	0.0452331
814.133	0.0457847
814.268	0.0449572
814.402	0.0437621
814.537	0.0440379
814.671	0.0448653
814.806	0.0440379
814.94	0.0441298
815.075	0.0439459
815.209	0.0447734
815.344	0.0424749
815.478	0.0436701
815.612	0.0442218
815.747	0.042383
815.881	0.0412798
816.016	0.0427508
816.15	0.0427508
816.285	0.0432104
816.419	0.0422911
816.554	0.0418314
816.688	0.0431185
816.823	0.0416475
816.957	0.0419233
817.092	0.0429346
817.226	0.0411878
817.361	0.0424749
817.495	0.0426588
817.63	0.0421072
817.764	0.0416475
817.898	0.0436701
818.033	0.0425669
818.167	0.0421072
818.302	0.0414636
818.436	0.0417395
818.571	0.0427508
818.705	0.0420153
818.84	0.0408201
818.974	0.0428427
819.109	0.0418314
819.243	0.0422911
819.378	0.0413717
819.512	0.0427508
819.646	0.0416475
819.781	0.0417395
819.915	0.0426588
820.05	0.0419233
820.184	0.0424749
820.319	0.0417395
820.453	0.0407281
820.588	0.0425669
820.722	0.0443137
820.857	0.0418314
820.991	0.0418314
821.126	0.0436701
821.26	0.0416475
821.394	0.0427508
821.529	0.0412798
821.663	0.0414636
821.798	0.042383
821.932	0.0412798
822.067	0.0416475
822.201	0.0417395
822.336	0.0416475
822.47	0.040912
822.605	0.0421991
822.739	0.0419233
822.873	0.0415556
823.008	0.0415556
823.142	0.0415556
823.277	0.0419233
823.411	0.0421991
823.546	0.0420153
823.68	0.0417395
823.815	0.0416475
823.949	0.0416475
824.083	0.0435782
824.218	0.0415556
824.352	0.0417395
824.487	0.0410959
824.621	0.0410959
824.756	0.0417395
824.89	0.0419233
825.025	0.0422911
825.159	0.041004
825.293	0.040912
825.428	0.0418314
825.562	0.0418314
825.697	0.0422911
825.831	0.0421991
825.966	0.042383
826.1	0.0421991
826.235	0.041004
826.369	0.040912
826.503	0.0413717
826.638	0.0421072
826.772	0.0421072
826.907	0.0420153
827.041	0.0413717
827.176	0.0421072
827.31	0.0421991
827.445	0.0412798
827.579	0.0411878
827.713	0.0421991
827.848	0.0402685
827.982	0.0417395
828.117	0.0408201
828.251	0.0401765
828.386	0.0417395
828.52	0.0419233
828.654	0.0406362
828.789	0.0408201
828.923	0.041004
829.058	0.0414636
829.192	0.0411878
829.327	0.0429346
829.461	0.0418314
829.596	0.0420153
829.73	0.041004
829.864	0.0421991
829.999	0.0405443
830.133	0.0408201
830.268	0.0414636
830.402	0.0414636
830.537	0.0417395
830.671	0.0416475
830.805	0.0421991
830.94	0.0421991
831.074	0.0426588
831.209	0.041004
831.343	0.0414636
831.478	0.0421072
831.612	0.0416475
831.746	0.0445895
831.881	0.0421072
832.015	0.0401765
832.15	0.0406362
832.284	0.0422911
832.418	0.0414636
832.553	0.0411878
832.687	0.040912
832.822	0.0401765
832.956	0.0417395
833.091	0.0416475
833.225	0.0411878
833.359	0.0415556
833.494	0.0422911
833.628	0.0411878
833.763	0.0419233
833.897	0.0405443
834.032	0.0420153
834.166	0.0411878
834.3	0.0417395
834.435	0.0424749
834.569	0.0420153
834.704	0.040912
834.838	0.0427508
834.972	0.0411878
835.107	0.0427508
835.241	0.040912
835.376	0.0418314
835.51	0.0413717
835.645	0.0405443
835.779	0.0419233
835.913	0.0424749
836.048	0.0416475
836.182	0.0415556
836.317	0.0410959
836.451	0.0418314
836.585	0.0420153
836.72	0.0419233
836.854	0.0421991
836.989	0.0410959
837.123	0.0421072
837.257	0.0416475
837.392	0.0415556
837.526	0.0410959
837.661	0.0412798
837.795	0.042383
837.929	0.0402685
838.064	0.0417395
838.198	0.0413717
838.333	0.0430266
838.467	0.0403604
838.602	0.0404523
838.736	0.040912
838.87	0.0412798
839.005	0.0415556
839.139	0.0413717
839.274	0.0405443
839.408	0.0404523
839.542	0.0413717
839.677	0.042383
839.811	0.0416475
839.946	0.0416475
840.08	0.0413717
840.214	0.0404523
840.349	0.0420153
840.483	0.0416475
840.618	0.0421072
840.752	0.0412798
840.886	0.0419233
841.021	0.0420153
841.155	0.0405443
841.29	0.0419233
841.424	0.0404523
841.558	0.042383
841.693	0.0415556
841.827	0.0420153
841.961	0.0418314
842.096	0.0418314
842.23	0.0413717
842.365	0.0419233
842.499	0.0410959
842.633	0.0422911
842.768	0.0411878
842.902	0.0425669
843.037	0.0422911
843.171	0.0414636
843.305	0.0419233
843.44	0.0410959
843.574	0.0410959
843.709	0.0421991
843.843	0.0411878
843.977	0.0414636
844.112	0.0414636
844.246	0.042383
844.381	0.0411878
844.515	0.0424749
844.649	0.0411878
844.784	0.040912
844.918	0.0414636
845.052	0.0425669
845.187	0.0415556
845.321	0.040912
845.456	0.0418314
845.59	0.0410959
845.724	0.040912
845.859	0.0410959
845.993	0.0419233
846.128	0.0415556
846.262	0.0403604
846.396	0.0421991
846.531	0.0413717
846.665	0.0420153
846.799	0.0411878
846.934	0.0425669
847.068	0.041004
847.203	0.0404523
847.337	0.0419233
847.471	0.0421991
847.606	0.0402685
847.74	0.0419233
847.874	0.0424749
848.009	0.0424749
848.143	0.0406362
848.278	0.0410959
848.412	0.0429346
848.546	0.0425669
848.681	0.0415556
848.815	0.0420153
848.949	0.0411878
849.084	0.0404523
849.218	0.0410959
849.353	0.0406362
849.487	0.0420153
849.621	0.0412798
849.756	0.0417395
849.89	0.0416475
850.024	0.0419233
850.159	0.0408201
850.293	0.0404523
850.428	0.0415556
850.562	0.0418314
850.696	0.0420153
850.831	0.0421072
850.965	0.0424749
851.099	0.041004
851.234	0.0425669
851.368	0.0418314
851.502	0.040912
851.637	0.0415556
851.771	0.0413717
851.906	0.0415556
852.04	0.0421072
852.174	0.0414636
852.309	0.0418314
852.443	0.0417395
852.577	0.0429346
852.712	0.0413717
852.846	0.0417395
852.98	0.0414636
853.115	0.0417395
853.249	0.0413717
853.384	0.0412798
853.518	0.041004
853.652	0.0425669
853.787	0.0429346
853.921	0.0415556
854.055	0.041004
854.19	0.0421991
854.324	0.0420153
854.458	0.0416475
854.593	0.0419233
854.727	0.0426588
854.861	0.0388894
854.996	0.0407281
855.13	0.0420153
855.265	0.0416475
855.399	0.0426588
855.533	0.0413717
855.668	0.0412798
855.802	0.0421991
855.936	0.0421072
856.071	0.0417395
856.205	0.0421072
856.339	0.0421991
856.474	0.0416475
856.608	0.0421072
856.742	0.041004
856.877	0.0415556
857.011	0.0418314
857.145	0.0428427
857.28	0.0428427
857.414	0.041004
857.549	0.0425669
857.683	0.0417395
857.817	0.0421991
857.952	0.0425669
858.086	0.0407281
858.22	0.0410959
858.355	0.0406362
858.489	0.0414636
858.623	0.0411878
858.758	0.041004
858.892	0.0414636
859.026	0.0408201
859.161	0.0422911
859.295	0.0408201
859.429	0.0414636
859.564	0.0415556
859.698	0.0410959
859.832	0.0412798
859.967	0.0416475
860.101	0.0421072
860.235	0.0414636
860.37	0.040912
860.504	0.0429346
860.638	0.0412798
860.773	0.0400846
860.907	0.0410959
861.041	0.0433024
861.176	0.0415556
861.31	0.041004
861.444	0.041004
861.579	0.0415556
861.713	0.0421072
861.847	0.0417395
861.982	0.0424749
862.116	0.0414636
862.25	0.0432104
862.385	0.0410959
862.519	0.0421991
862.653	0.0411878
862.788	0.0420153
862.922	0.0410959
863.056	0.0404523
863.191	0.0413717
863.325	0.0431185
863.459	0.042383
863.594	0.0411878
863.728	0.0420153
863.862	0.0413717
863.997	0.0421072
864.131	0.0421991
864.265	0.0421072
864.4	0.0407281
864.534	0.041004
864.668	0.0418314
864.803	0.0431185
864.937	0.0418314
865.071	0.0429346
865.206	0.0421072
865.34	0.0418314
865.474	0.0430266
865.609	0.0414636
865.743	0.0412798
865.877	0.0408201
866.012	0.0421991
866.146	0.0424749
866.28	0.0412798
866.415	0.0415556
866.549	0.0410959
866.683	0.0405443
866.818	0.0410959
866.952	0.0411878
867.086	0.0421072
867.221	0.0411878
867.355	0.0413717
867.489	0.0422911
867.623	0.042383
867.758	0.0419233
867.892	0.0428427
868.026	0.0414636
868.161	0.0416475
868.295	0.0422911
868.429	0.042383
868.564	0.0406362
868.698	0.0415556
868.832	0.0415556
868.967	0.0414636
869.101	0.0419233
869.235	0.0402685
869.37	0.0418314
869.504	0.042383
869.638	0.0421072
869.773	0.0421991
869.907	0.0425669
870.041	0.040912
870.175	0.0421072
870.31	0.0416475
870.444	0.0414636
870.578	0.0418314
870.713	0.0426588
870.847	0.0424749
870.981	0.0422911
871.116	0.0422911
871.25	0.0412798
871.384	0.0421072
871.519	0.0415556
871.653	0.0411878
871.787	0.0411878
871.921	0.0415556
872.056	0.0402685
872.19	0.0425669
872.324	0.0414636
872.459	0.040912
872.593	0.0421991
872.727	0.0418314
872.862	0.0426588
872.996	0.0429346
873.13	0.0421072
873.264	0.0418314
873.399	0.0421072
873.533	0.0410959
873.667	0.0414636
873.802	0.0421072
873.936	0.0424749
874.07	0.0412798
874.205	0.0421991
874.339	0.0407281
874.473	0.0413717
874.607	0.0404523
874.742	0.0421072
874.876	0.0414636
875.01	0.0425669
875.145	0.0406362
875.279	0.0408201
875.413	0.0405443
875.548	0.0425669
875.682	0.0406362
875.816	0.0430266
875.95	0.041004
876.085	0.0410959
876.219	0.0417395
876.353	0.0404523
876.488	0.0421991
876.622	0.0419233
876.756	0.0411878
876.89	0.0416475
877.025	0.0415556
877.159	0.0413717
877.293	0.0414636
877.428	0.0412798
877.562	0.0425669
877.696	0.0417395
877.83	0.0415556
877.965	0.0430266
878.099	0.0418314
878.233	0.040912
878.368	0.0424749
878.502	0.0422911
878.636	0.0416475
878.77	0.0414636
878.905	0.0418314
879.039	0.0427508
879.173	0.0421072
879.308	0.0424749
879.442	0.0420153
879.576	0.0418314
879.71	0.0413717
879.845	0.0417395
879.979	0.0415556
880.113	0.0411878
880.248	0.0426588
880.382	0.0418314
880.516	0.0421072
880.65	0.0421991
880.785	0.0421991
880.919	0.0408201
881.053	0.0410959
881.188	0.0421991
881.322	0.0413717
881.456	0.0418314
881.59	0.0414636
881.725	0.0411878
881.859	0.0412798
881.993	0.0424749
882.127	0.0410959
882.262	0.0404523
882.396	0.0415556
882.53	0.0415556
882.665	0.0410959
882.799	0.0406362
882.933	0.0414636
883.067	0.0421072
883.202	0.0416475
883.336	0.0413717
883.47	0.0433024
883.604	0.0417395
883.739	0.0420153
883.873	0.0417395
884.007	0.0416475
884.142	0.0404523
884.276	0.0433943
884.41	0.0419233
884.544	0.0421072
884.679	0.0399926
884.813	0.0416475
884.947	0.0417395
885.081	0.0415556
885.216	0.0415556
885.35	0.0425669
885.484	0.0406362
885.618	0.0407281
885.753	0.0414636
885.887	0.0403604
886.021	0.0427508
886.155	0.0404523
886.29	0.041004
886.424	0.0419233
886.558	0.0428427
886.693	0.0420153
886.827	0.041004
886.961	0.0400846
887.095	0.041004
887.23	0.0404523
887.364	0.0420153
887.498	0.0428427
887.632	0.0421072
887.767	0.0427508
887.901	0.0411878
888.035	0.0426588
888.169	0.0429346
888.304	0.0416475
888.438	0.0410959
888.572	0.0400846
888.706	0.042383
888.841	0.0408201
888.975	0.0415556
889.109	0.0411878
889.243	0.042383
889.378	0.041004
889.512	0.0401765
889.646	0.0408201
889.78	0.0429346
889.915	0.0424749
890.049	0.0411878
890.183	0.0426588
890.317	0.0414636
890.452	0.0413717
890.586	0.0429346
890.72	0.0419233
890.854	0.0418314
890.989	0.0416475
891.123	0.0396249
891.257	0.0418314
891.391	0.0431185
891.526	0.0420153
891.66	0.0414636
891.794	0.0425669
891.928	0.0416475
892.063	0.041004
892.197	0.0421072
892.331	0.0405443
892.465	0.0418314
892.6	0.0421072
892.734	0.0420153
892.868	0.0421072
893.002	0.0405443
893.137	0.0419233
893.271	0.0399007
893.405	0.041004
893.539	0.0406362
893.674	0.0417395
893.808	0.0412798
893.942	0.0411878
894.076	0.0426588
894.21	0.0419233
894.345	0.0398088
894.479	0.0412798
894.613	0.0406362
894.747	0.0425669
894.882	0.040912
895.016	0.0413717
895.15	0.0416475
895.284	0.0408201
895.419	0.0415556
895.553	0.0411878
895.687	0.0415556
895.821	0.0425669
895.956	0.0410959
896.09	0.0403604
896.224	0.0401765
896.358	0.0422911
896.492	0.0425669
896.627	0.0416475
896.761	0.0416475
896.895	0.0419233
897.029	0.0421072
897.164	0.0424749
897.298	0.0420153
897.432	0.0427508
897.566	0.0406362
897.701	0.0411878
897.835	0.0426588
897.969	0.0414636
898.103	0.0408201
898.237	0.0415556
898.372	0.0408201
898.506	0.0418314
898.64	0.042383
898.774	0.0413717
898.909	0.0408201
899.043	0.0421072
899.177	0.0418314
899.311	0.040912
899.445	0.0420153
899.58	0.0404523
899.714	0.0424749
899.848	0.041004
899.982	0.0410959
900.117	0.0414636
900.251	0.0417395
900.385	0.041004
900.519	0.0422911
900.653	0.0415556
900.788	0.0427508
900.922	0.0419233
901.056	0.0411878
901.19	0.0416475
901.325	0.0403604
901.459	0.0416475
901.593	0.0424749
901.727	0.0419233
901.861	0.0412798
901.996	0.0416475
902.13	0.0421072
902.264	0.0413717
902.398	0.0406362
902.532	0.0419233
902.667	0.0400846
902.801	0.0416475
902.935	0.0421072
903.069	0.0414636
903.204	0.0412798
903.338	0.0414636
903.472	0.0403604
903.606	0.0422911
903.74	0.0421072
903.875	0.0421991
904.009	0.0407281
904.143	0.0421991
904.277	0.0402685
904.411	0.041004
904.546	0.0418314
904.68	0.0415556
904.814	0.0419233
904.948	0.040912
905.082	0.0417395
905.217	0.0431185
905.351	0.0419233
905.485	0.0417395
905.619	0.042383
905.753	0.0416475
905.888	0.0408201
906.022	0.0425669
906.156	0.0416475
906.29	0.0420153
906.424	0.0421072
906.559	0.0414636
906.693	0.0421072
906.827	0.0418314
906.961	0.0431185
907.095	0.0420153
907.23	0.042383
907.364	0.0419233
907.498	0.0411878
907.632	0.0414636
907.766	0.0420153
907.901	0.0419233
908.035	0.0419233
908.169	0.0417395
908.303	0.0419233
908.437	0.0426588
908.572	0.0420153
908.706	0.0426588
908.84	0.0430266
908.974	0.0416475
909.108	0.0400846
909.243	0.0415556
909.377	0.0432104
909.511	0.0411878
909.645	0.0417395
909.779	0.0420153
909.914	0.041004
910.048	0.0420153
910.182	0.0428427
910.316	0.0420153
910.45	0.0413717
910.585	0.042383
910.719	0.0416475
910.853	0.0415556
910.987	0.0416475
911.121	0.0415556
911.255	0.0417395
911.39	0.0420153
911.524	0.0416475
911.658	0.0415556
911.792	0.0429346
911.926	0.0422911
912.061	0.0427508
912.195	0.0403604
912.329	0.0426588
912.463	0.0420153
912.597	0.0411878
912.732	0.0418314
912.866	0.0418314
913	0.0410959
913.134	0.0407281
913.268	0.0417395
913.402	0.0417395
913.537	0.0424749
913.671	0.0427508
913.805	0.0410959
913.939	0.0418314
914.073	0.0421072
914.208	0.0425669
914.342	0.0411878
914.476	0.0410959
914.61	0.0420153
914.744	0.0421991
914.878	0.0420153
915.013	0.0414636
915.147	0.0416475
915.281	0.0400846
915.415	0.040912
915.549	0.0418314
915.683	0.0404523
915.818	0.0416475
915.952	0.0417395
916.086	0.0401765
916.22	0.0422911
916.354	0.0421072
916.488	0.0411878
916.623	0.0415556
916.757	0.0418314
916.891	0.0416475
917.025	0.0417395
917.159	0.0412798
917.293	0.0435782
917.428	0.0422911
917.562	0.040912
917.696	0.0396249
917.83	0.0412798
917.964	0.0416475
918.098	0.0429346
918.233	0.0412798
918.367	0.042383
918.501	0.0422911
918.635	0.0428427
918.769	0.0400846
918.903	0.0411878
919.038	0.0422911
919.172	0.0429346
919.306	0.0410959
919.44	0.0410959
919.574	0.0416475
919.708	0.0417395
919.843	0.040912
919.977	0.0410959
920.111	0.0408201
920.245	0.0414636
920.379	0.0415556
920.513	0.0412798
920.648	0.0412798
920.782	0.0407281
920.916	0.0419233
921.05	0.0408201
921.184	0.0421072
921.318	0.0413717
921.453	0.0429346
921.587	0.0411878
921.721	0.0413717
921.855	0.0404523
921.989	0.0422911
922.123	0.0418314
922.257	0.0428427
922.392	0.0408201
922.526	0.0424749
922.66	0.0404523
922.794	0.0408201
922.928	0.0419233
923.062	0.0405443
923.197	0.0417395
923.331	0.0412798
923.465	0.0411878
923.599	0.0410959
923.733	0.0414636
923.867	0.0420153
924.001	0.040912
924.136	0.0411878
924.27	0.0406362
924.404	0.0424749
924.538	0.0401765
924.672	0.0408201
924.806	0.0405443
924.94	0.042383
925.075	0.0405443
925.209	0.0411878
925.343	0.0418314
925.477	0.0414636
925.611	0.042383
925.745	0.0411878
925.879	0.0411878
926.014	0.042383
926.148	0.0404523
926.282	0.0411878
926.416	0.0425669
926.55	0.0407281
926.684	0.0421072
926.818	0.0421072
926.953	0.0416475
927.087	0.0406362
927.221	0.0417395
927.355	0.041004
927.489	0.0428427
927.623	0.0401765
927.757	0.0410959
927.892	0.0410959
928.026	0.0414636
928.16	0.0424749
928.294	0.0412798
928.428	0.0419233
928.562	0.0415556
928.696	0.0424749
928.831	0.0429346
928.965	0.0422911
929.099	0.0422911
929.233	0.0416475
929.367	0.0412798
929.501	0.0408201
929.635	0.0430266
929.769	0.0417395
929.904	0.040912
930.038	0.0421991
930.172	0.0431185
930.306	0.0426588
930.44	0.0424749
930.574	0.0413717
930.708	0.0419233
930.843	0.0400846
930.977	0.0408201
931.111	0.0414636
931.245	0.0421072
931.379	0.0418314
931.513	0.0415556
931.647	0.0425669
931.781	0.040912
931.916	0.0412798
932.05	0.0427508
932.184	0.0419233
932.318	0.0432104
932.452	0.0408201
932.586	0.0421072
932.72	0.0407281
932.854	0.0408201
932.989	0.0419233
933.123	0.0433943
933.257	0.0414636
933.391	0.0424749
933.525	0.0402685
933.659	0.0426588
933.793	0.0407281
933.927	0.0413717
934.061	0.0411878
934.196	0.0421072
934.33	0.0406362
934.464	0.0422911
934.598	0.0411878
934.732	0.040912
934.866	0.0421072
935	0.0427508
935.134	0.0406362
935.269	0.040912
935.403	0.0411878
935.537	0.0416475
935.671	0.0419233
935.805	0.0402685
935.939	0.0424749
936.073	0.0415556
936.207	0.0419233
936.341	0.0402685
936.476	0.0435782
936.61	0.041004
936.744	0.0421991
936.878	0.0420153
937.012	0.0403604
937.146	0.0421072
937.28	0.040912
937.414	0.0407281
937.548	0.0421072
937.683	0.0417395
937.817	0.0424749
937.951	0.0412798
938.085	0.0418314
938.219	0.0407281
938.353	0.0399007
938.487	0.0403604
938.621	0.0418314
938.755	0.0429346
938.889	0.0405443
939.024	0.0413717
939.158	0.041004
939.292	0.0411878
939.426	0.0420153
939.56	0.0416475
939.694	0.0421991
939.828	0.0414636
939.962	0.0415556
940.096	0.0414636
940.231	0.0413717
940.365	0.0417395
940.499	0.0421991
940.633	0.0415556
940.767	0.0417395
940.901	0.0431185
941.035	0.0428427
941.169	0.0416475
941.303	0.0411878
941.437	0.0412798
941.571	0.0411878
941.706	0.0426588
941.84	0.0420153
941.974	0.0414636
942.108	0.0411878
942.242	0.0411878
942.376	0.0417395
942.51	0.0411878
942.644	0.040912
942.778	0.0399926
942.912	0.0402685
943.047	0.0410959
943.181	0.0424749
943.315	0.0417395
943.449	0.0426588
943.583	0.0431185
943.717	0.0417395
943.851	0.0412798
943.985	0.0405443
944.119	0.0407281
944.253	0.0417395
944.387	0.0399007
944.522	0.0414636
944.656	0.040912
944.79	0.0399926
944.924	0.0419233
945.058	0.0407281
945.192	0.0427508
945.326	0.0416475
945.46	0.0420153
945.594	0.0424749
945.728	0.0418314
945.862	0.0418314
945.996	0.0420153
946.131	0.0413717
946.265	0.0419233
946.399	0.0408201
946.533	0.0416475
946.667	0.0408201
946.801	0.0429346
946.935	0.041004
947.069	0.0421072
947.203	0.0415556
947.337	0.0416475
947.471	0.0415556
947.605	0.0412798
947.739	0.0415556
947.874	0.0411878
948.008	0.0412798
948.142	0.041004
948.276	0.0417395
948.41	0.042383
948.544	0.0403604
948.678	0.042383
948.812	0.0403604
948.946	0.0405443
949.08	0.0420153
949.214	0.0403604
949.348	0.0432104
949.482	0.041004
949.617	0.0412798
949.751	0.0416475
949.885	0.0426588
950.019	0.0413717
950.153	0.0421991
950.287	0.0412798
950.421	0.0410959
950.555	0.0424749
950.689	0.0411878
950.823	0.0413717
950.957	0.0419233
951.091	0.0421072
951.225	0.040912
951.359	0.0401765
951.493	0.0425669
951.628	0.043854
951.762	0.0410959
951.896	0.0421072
952.03	0.0408201
952.164	0.040912
952.298	0.0402685
952.432	0.0414636
952.566	0.0428427
952.7	0.042383
952.834	0.0410959
952.968	0.0415556
953.102	0.041004
953.236	0.0412798
953.37	0.040912
953.504	0.041004
953.639	0.0419233
953.773	0.0415556
953.907	0.0415556
954.041	0.0426588
954.175	0.0427508
954.309	0.0413717
954.443	0.0418314
954.577	0.041004
954.711	0.0401765
954.845	0.0410959
954.979	0.0399007
955.113	0.0416475
955.247	0.0415556
955.381	0.041004
955.515	0.042383
955.649	0.0427508
955.783	0.0407281
955.917	0.0416475
956.052	0.0407281
956.186	0.0421991
956.32	0.0405443
956.454	0.0416475
956.588	0.0419233
956.722	0.040912
956.856	0.0417395
956.99	0.0424749
957.124	0.0412798
957.258	0.0419233
957.392	0.0413717
957.526	0.0422911
957.66	0.0420153
957.794	0.0420153
957.928	0.0426588
958.062	0.0411878
958.196	0.0420153
958.33	0.042383
958.464	0.0400846
958.598	0.0411878
958.733	0.0420153
958.867	0.040912
959.001	0.0417395
959.135	0.040912
959.269	0.0399926
959.403	0.0411878
959.537	0.040912
959.671	0.0416475
959.805	0.0404523
959.939	0.0418314
960.073	0.0411878
960.207	0.0404523
960.341	0.0421991
960.475	0.042383
960.609	0.0411878
960.743	0.042383
960.877	0.0413717
961.011	0.0402685
961.145	0.0407281
961.279	0.0419233
961.413	0.0417395
961.547	0.0407281
961.681	0.0403604
961.815	0.041004
961.949	0.0426588
962.083	0.0418314
962.218	0.0416475
962.352	0.0398088
962.486	0.0411878
962.62	0.0412798
962.754	0.0418314
962.888	0.0417395
963.022	0.0408201
963.156	0.0419233
963.29	0.0421072
963.424	0.0416475
963.558	0.0412798
963.692	0.041004
963.826	0.0415556
963.96	0.0413717
964.094	0.0400846
964.228	0.0424749
964.362	0.0400846
964.496	0.0408201
964.63	0.0411878
964.764	0.0413717
964.898	0.0428427
965.032	0.0412798
965.166	0.0422911
965.3	0.0422911
965.434	0.0415556
965.568	0.0411878
965.702	0.0404523
965.836	0.041004
965.97	0.0418314
966.104	0.0403604
966.238	0.0403604
966.372	0.0407281
966.506	0.041004
966.64	0.0429346
966.774	0.0410959
966.908	0.0416475
967.043	0.0426588
967.177	0.0428427
967.311	0.0421991
967.445	0.0407281
967.579	0.0412798
967.713	0.041004
967.847	0.041004
967.981	0.0415556
968.115	0.0413717
968.249	0.0410959
968.383	0.0401765
968.517	0.0404523
968.651	0.0410959
968.785	0.040912
968.919	0.040912
969.053	0.0407281
969.187	0.0410959
969.321	0.0431185
969.455	0.0406362
969.589	0.0422911
969.723	0.0421072
969.857	0.0411878
969.991	0.0417395
970.125	0.0417395
970.259	0.0426588
970.393	0.040912
970.527	0.0414636
970.661	0.0425669
970.795	0.0406362
970.929	0.0420153
971.063	0.0421072
971.197	0.0419233
971.331	0.0413717
971.465	0.0407281
971.599	0.041004
971.733	0.0421072
971.867	0.0415556
972.001	0.0411878
972.135	0.0422911
972.269	0.0407281
972.403	0.0421072
972.537	0.0422911
972.671	0.0417395
972.805	0.0419233
972.939	0.0411878
973.073	0.0406362
973.207	0.0421991
973.341	0.0417395
973.475	0.0414636
973.609	0.0400846
973.743	0.041004
973.877	0.0419233
974.011	0.0410959
974.145	0.0407281
974.279	0.0412798
974.413	0.0416475
974.547	0.0434863
974.681	0.0428427
974.815	0.0421991
974.949	0.0419233
975.083	0.0414636
975.217	0.0435782
975.351	0.0415556
975.485	0.040912
975.619	0.0417395
975.753	0.0418314
975.887	0.0413717
976.021	0.0416475
976.155	0.0412798
976.289	0.0425669
976.423	0.0427508
976.557	0.0421991
976.691	0.0428427
976.825	0.0412798
976.959	0.0415556
977.093	0.041004
977.227	0.0419233
977.361	0.0427508
977.495	0.0421991
977.629	0.041004
977.763	0.0413717
977.897	0.0410959
978.031	0.0421991
978.165	0.0416475
978.299	0.0410959
978.433	0.0413717
978.567	0.0412798
978.701	0.0414636
978.835	0.0417395
978.969	0.0419233
979.103	0.0413717
979.237	0.0419233
979.371	0.0417395
979.505	0.042383
979.639	0.0419233
979.773	0.0415556
979.907	0.0408201
980.041	0.0421072
980.175	0.039441
980.308	0.0418314
980.442	0.0404523
980.576	0.0402685
980.71	0.0411878
980.844	0.0407281
980.978	0.0416475
981.112	0.0419233
981.246	0.041004
981.38	0.0422911
981.514	0.0413717
981.648	0.0427508
981.782	0.0405443
981.916	0.0431185
982.05	0.0413717
982.184	0.0421072
982.318	0.0422911
982.452	0.0431185
982.586	0.0421991
982.72	0.0419233
982.854	0.041004
982.988	0.0419233
983.122	0.0413717
983.256	0.0413717
983.39	0.040912
983.524	0.0424749
983.658	0.0430266
983.792	0.0408201
983.926	0.0412798
984.06	0.0412798
984.194	0.041004
984.328	0.0416475
984.462	0.0424749
984.596	0.0406362
984.73	0.0407281
984.864	0.040912
984.998	0.0405443
985.132	0.0420153
985.265	0.0421072
985.399	0.0414636
985.533	0.0415556
985.667	0.0420153
985.801	0.0416475
985.935	0.0414636
986.069	0.0412798
986.203	0.0401765
986.337	0.0400846
986.471	0.0422911
986.605	0.0417395
986.739	0.0428427
986.873	0.0422911
987.007	0.0417395
987.141	0.0415556
987.275	0.0416475
987.409	0.0430266
987.543	0.0437621
987.677	0.0422911
987.811	0.0421072
987.945	0.0416475
988.079	0.0429346
988.213	0.0422911
988.347	0.0426588
988.481	0.0424749
988.614	0.0417395
988.748	0.0418314
988.882	0.0419233
989.016	0.0425669
989.15	0.0418314
989.284	0.0404523
989.418	0.0408201
989.552	0.0415556
989.686	0.0421991
989.82	0.0408201
989.954	0.0419233
990.088	0.0421072
990.222	0.0413717
990.356	0.0412798
990.49	0.0416475
990.624	0.0415556
990.758	0.0404523
990.892	0.0421991
991.026	0.0419233
991.16	0.0416475
991.294	0.0421991
991.427	0.0410959
991.561	0.0411878
991.695	0.0418314
991.829	0.041004
991.963	0.0421991
992.097	0.0414636
992.231	0.0415556
992.365	0.0418314
992.499	0.0411878
992.633	0.0412798
992.767	0.0421991
992.901	0.0413717
993.035	0.0408201
993.169	0.0405443
993.303	0.0414636
993.437	0.0410959
993.571	0.0414636
993.704	0.0410959
993.838	0.0416475
993.972	0.0421991
994.106	0.0416475
994.24	0.0407281
994.374	0.0418314
994.508	0.042383
994.642	0.0421072
994.776	0.0421072
994.91	0.0416475
995.044	0.0417395
995.178	0.0410959
995.312	0.0422911
995.446	0.0414636
995.58	0.042383
995.714	0.0412798
995.847	0.0420153
995.981	0.0413717
996.115	0.0406362
996.249	0.0419233
996.383	0.0417395
996.517	0.0414636
996.651	0.0419233
996.785	0.040912
996.919	0.0417395
997.053	0.0420153
997.187	0.0406362
997.321	0.0414636
997.455	0.0419233
997.589	0.0417395
997.722	0.0412798
997.856	0.0406362
997.99	0.0421072
998.124	0.0415556
998.258	0.0425669
998.392	0.0405443
998.526	0.0417395
998.66	0.0420153
998.794	0.0401765
998.928	0.040912
999.062	0.0403604
999.196	0.0413717
999.33	0.042383
999.464	0.0417395
999.597	0.0428427
999.731	0.0417395
999.865	0.0424749
999.999	0.042383
1000.13	0.0421072
1000.27	0.0413717
1000.4	0.040912
1000.53	0.0420153
1000.67	0.0407281
1000.8	0.041004
1000.94	0.0417395
1001.07	0.0412798
1001.2	0.0430266
1001.34	0.0406362
1001.47	0.039441
1001.61	0.041004
1001.74	0.0408201
1001.87	0.0413717
1002.01	0.0406362
1002.14	0.0420153
1002.28	0.0406362
1002.41	0.0406362
1002.54	0.0431185
1002.68	0.0417395
1002.81	0.041004
1002.95	0.0412798
1003.08	0.0420153
1003.21	0.0422911
1003.35	0.0421072
1003.48	0.0421072
1003.61	0.0415556
1003.75	0.0410959
1003.88	0.0420153
1004.02	0.0411878
1004.15	0.0415556
1004.28	0.0417395
1004.42	0.0427508
1004.55	0.0430266
1004.69	0.0418314
1004.82	0.042383
1004.95	0.0419233
1005.09	0.0412798
1005.22	0.0407281
1005.36	0.0414636
1005.49	0.0418314
1005.62	0.0410959
1005.76	0.0425669
1005.89	0.0417395
1006.03	0.0416475
1006.16	0.0419233
1006.29	0.0425669
1006.43	0.0427508
1006.56	0.0420153
1006.69	0.0413717
1006.83	0.0425669
1006.96	0.0418314
1007.1	0.0432104
1007.23	0.0416475
1007.36	0.0419233
1007.5	0.0415556
1007.63	0.0412798
1007.77	0.0419233
1007.9	0.0421991
1008.03	0.040912
1008.17	0.040912
1008.3	0.0415556
1008.44	0.0435782
1008.57	0.0418314
1008.7	0.042383
1008.84	0.0406362
1008.97	0.0420153
1009.1	0.0418314
1009.24	0.0415556
1009.37	0.0417395
1009.51	0.0410959
1009.64	0.0414636
1009.77	0.0418314
1009.91	0.0415556
1010.04	0.0417395
1010.18	0.041004
1010.31	0.0411878
1010.44	0.040912
1010.58	0.039533
1010.71	0.0422911
1010.85	0.0407281
1010.98	0.0414636
1011.11	0.0413717
1011.25	0.0405443
1011.38	0.0402685
1011.51	0.0408201
1011.65	0.0414636
1011.78	0.0421991
1011.92	0.0412798
1012.05	0.0421991
1012.18	0.0432104
1012.32	0.0407281
1012.45	0.0415556
1012.59	0.0408201
1012.72	0.0418314
1012.85	0.0413717
1012.99	0.0422911
1013.12	0.0427508
1013.26	0.0415556
1013.39	0.0417395
1013.52	0.0415556
1013.66	0.0397168
1013.79	0.0413717
1013.92	0.0433943
1014.06	0.0418314
1014.19	0.0419233
1014.33	0.0421991
1014.46	0.0424749
1014.59	0.0424749
1014.73	0.0416475
1014.86	0.0417395
1015	0.0405443
1015.13	0.0410959
1015.26	0.0421072
1015.4	0.0408201
1015.53	0.0420153
1015.67	0.0399926
1015.8	0.0410959
1015.93	0.0428427
1016.07	0.0401765
1016.2	0.0410959
1016.33	0.0417395
1016.47	0.0420153
1016.6	0.0417395
1016.74	0.0424749
1016.87	0.041004
1017	0.0421991
1017.14	0.0386136
1017.27	0.0422911
1017.41	0.0410959
1017.54	0.0420153
1017.67	0.0407281
1017.81	0.0411878
1017.94	0.0416475
1018.07	0.0421991
1018.21	0.0412798
1018.34	0.041004
1018.48	0.0416475
1018.61	0.0411878
1018.74	0.0417395
1018.88	0.0412798
1019.01	0.0418314
1019.15	0.0420153
1019.28	0.0421991
1019.41	0.0404523
1019.55	0.0430266
1019.68	0.0427508
1019.82	0.0411878
1019.95	0.0416475
1020.08	0.0421991
1020.22	0.0417395
1020.35	0.0412798
1020.48	0.0421072
1020.62	0.0416475
1020.75	0.0428427
1020.89	0.0415556
1021.02	0.0416475
1021.15	0.043854
1021.29	0.042383
1021.42	0.0425669
1021.56	0.0412798
1021.69	0.0418314
1021.82	0.0417395
1021.96	0.0400846
1022.09	0.0416475
1022.22	0.0430266
1022.36	0.0410959
1022.49	0.0404523
1022.63	0.0420153
1022.76	0.0417395
1022.89	0.0411878
1023.03	0.0424749
1023.16	0.0428427
1023.3	0.0422911
1023.43	0.0428427
1023.56	0.041004
1023.7	0.0421072
1023.83	0.0414636
1023.96	0.0432104
1024.1	0.0418314
1024.23	0.0418314
1024.37	0.0401765
1024.5	0.0425669
1024.63	0.0418314
1024.77	0.0420153
1024.9	0.0422911
1025.04	0.0414636
1025.17	0.041004
1025.3	0.0418314
1025.44	0.0417395
1025.57	0.0410959
1025.7	0.0418314
1025.84	0.0420153
1025.97	0.0415556
1026.11	0.0416475
1026.24	0.0413717
1026.37	0.0415556
1026.51	0.0404523
1026.64	0.042383
1026.78	0.0412798
1026.91	0.0417395
1027.04	0.0404523
1027.18	0.041004
1027.31	0.0417395
1027.44	0.0416475
1027.58	0.0404523
1027.71	0.0422911
1027.85	0.0412798
1027.98	0.0408201
1028.11	0.0397168
1028.25	0.0420153
1028.38	0.0421991
1028.52	0.0413717
1028.65	0.0421991
1028.78	0.041004
1028.92	0.0415556
1029.05	0.0418314
1029.18	0.0421991
1029.32	0.0424749
1029.45	0.0436701
1029.59	0.0422911
1029.72	0.0418314
1029.85	0.0426588
1029.99	0.0425669
1030.12	0.0415556
1030.26	0.0406362
1030.39	0.0407281
1030.52	0.0418314
1030.66	0.0419233
1030.79	0.041004
1030.92	0.0414636
1031.06	0.0416475
1031.19	0.0412798
1031.33	0.0417395
1031.46	0.041004
1031.59	0.0421072
1031.73	0.0421072
1031.86	0.042383
1031.99	0.0410959
1032.13	0.0418314
1032.26	0.0414636
1032.4	0.0412798
1032.53	0.0427508
1032.66	0.0421072
1032.8	0.0414636
1032.93	0.0411878
1033.07	0.0404523
1033.2	0.0413717
1033.33	0.0410959
1033.47	0.0410959
1033.6	0.0421991
1033.73	0.0405443
1033.87	0.0412798
1034	0.0415556
1034.14	0.0406362
1034.27	0.0416475
1034.4	0.040912
1034.54	0.0411878
1034.67	0.0410959
1034.81	0.0432104
1034.94	0.0415556
1035.07	0.0419233
1035.21	0.0412798
1035.34	0.0411878
1035.47	0.0414636
1035.61	0.0404523
1035.74	0.0399007
1035.88	0.0425669
1036.01	0.0433943
1036.14	0.0433024
1036.28	0.041004
1036.41	0.0417395
1036.54	0.0421991
1036.68	0.0413717
1036.81	0.0411878
1036.95	0.040912
1037.08	0.0411878
1037.21	0.0425669
1037.35	0.0419233
1037.48	0.0421991
1037.62	0.0418314
1037.75	0.0400846
1037.88	0.0421991
1038.02	0.0411878
1038.15	0.0421072
1038.28	0.0403604
1038.42	0.0415556
1038.55	0.0424749
1038.69	0.0413717
1038.82	0.0403604
1038.95	0.0421072
1039.09	0.0399007
1039.22	0.0412798
1039.35	0.0430266
1039.49	0.0430266
1039.62	0.0413717
1039.76	0.0420153
1039.89	0.0410959
1040.02	0.0415556
1040.16	0.042383
1040.29	0.0413717
1040.43	0.0414636
1040.56	0.0407281
1040.69	0.0429346
1040.83	0.0419233
1040.96	0.0412798
1041.09	0.0405443
1041.23	0.0411878
1041.36	0.0421072
1041.5	0.0415556
1041.63	0.0424749
1041.76	0.042383
1041.9	0.0416475
1042.03	0.0420153
1042.16	0.0415556
1042.3	0.0396249
1042.43	0.0420153
1042.57	0.0413717
1042.7	0.0406362
1042.83	0.0407281
1042.97	0.0424749
1043.1	0.0406362
1043.23	0.0418314
1043.37	0.0414636
1043.5	0.0421072
1043.64	0.042383
1043.77	0.041004
1043.9	0.041004
1044.04	0.0432104
1044.17	0.0440379
1044.31	0.0411878
1044.44	0.0427508
1044.57	0.0414636
1044.71	0.0411878
1044.84	0.0420153
1044.97	0.0406362
1045.11	0.0429346
1045.24	0.0422911
1045.38	0.0413717
1045.51	0.0407281
1045.64	0.0421072
1045.78	0.0406362
1045.91	0.0421072
1046.04	0.0413717
1046.18	0.0403604
1046.31	0.0421991
1046.45	0.0414636
1046.58	0.0407281
1046.71	0.0412798
1046.85	0.042383
1046.98	0.0414636
1047.11	0.0418314
1047.25	0.0422911
1047.38	0.0406362
1047.52	0.0412798
1047.65	0.0410959
1047.78	0.0410959
1047.92	0.0417395
1048.05	0.0410959
1048.18	0.0412798
1048.32	0.0428427
1048.45	0.0415556
1048.59	0.0418314
1048.72	0.0412798
1048.85	0.0399926
1048.99	0.0417395
1049.12	0.0418314
1049.25	0.0422911
1049.39	0.0410959
1049.52	0.0401765
1049.66	0.0413717
1049.79	0.0413717
1049.92	0.0410959
1050.06	0.0419233
1050.19	0.0411878
1050.33	0.0410959
1050.46	0.042383
1050.59	0.0410959
1050.73	0.0419233
1050.86	0.0412798
1050.99	0.0414636
1051.13	0.0406362
1051.26	0.0408201
1051.4	0.0404523
1051.53	0.0405443
1051.66	0.041004
1051.8	0.042383
1051.93	0.0421072
1052.06	0.0424749
1052.2	0.0410959
1052.33	0.0414636
1052.47	0.0408201
1052.6	0.0418314
1052.73	0.0421991
1052.87	0.0419233
1053	0.0411878
1053.13	0.0410959
1053.27	0.0416475
1053.4	0.0407281
1053.54	0.0404523
1053.67	0.0402685
1053.8	0.0412798
1053.94	0.0415556
1054.07	0.0425669
1054.2	0.0424749
1054.34	0.0408201
1054.47	0.0419233
1054.61	0.0414636
1054.74	0.0415556
1054.87	0.0420153
1055.01	0.0411878
1055.14	0.0421072
1055.27	0.0413717
1055.41	0.0414636
1055.54	0.0429346
1055.68	0.0414636
1055.81	0.040912
1055.94	0.0405443
1056.08	0.0426588
1056.21	0.0407281
1056.34	0.0427508
1056.48	0.0419233
1056.61	0.042383
1056.75	0.042383
1056.88	0.0418314
1057.01	0.0415556
1057.15	0.042383
1057.28	0.0414636
1057.41	0.0416475
1057.55	0.0406362
1057.68	0.042383
1057.82	0.0419233
1057.95	0.0414636
1058.08	0.0420153
1058.22	0.0420153
1058.35	0.0425669
1058.48	0.0433943
1058.62	0.0427508
1058.75	0.0417395
1058.89	0.0422911
1059.02	0.0427508
1059.15	0.042383
1059.29	0.041004
1059.42	0.0422911
1059.55	0.0413717
1059.69	0.0418314
1059.82	0.0410959
1059.96	0.042383
1060.09	0.0422911
1060.22	0.0411878
1060.36	0.0421072
1060.49	0.0421991
1060.62	0.0413717
1060.76	0.0425669
1060.89	0.0421991
1061.03	0.0408201
1061.16	0.040912
1061.29	0.0411878
1061.43	0.0421072
1061.56	0.0418314
1061.69	0.0425669
1061.83	0.0401765
1061.96	0.0417395
1062.1	0.0414636
1062.23	0.0403604
1062.36	0.040912
1062.5	0.0419233
1062.63	0.0411878
1062.76	0.0417395
1062.9	0.0413717
1063.03	0.0431185
1063.17	0.0431185
1063.3	0.0420153
1063.43	0.040912
1063.57	0.0410959
1063.7	0.040912
1063.83	0.042383
1063.97	0.0419233
1064.1	0.0410959
1064.23	0.0413717
1064.37	0.0421072
1064.5	0.0421991
1064.64	0.0424749
1064.77	0.0422911
1064.9	0.0415556
1065.04	0.0415556
1065.17	0.0415556
1065.3	0.040912
1065.44	0.0414636
1065.57	0.0420153
1065.71	0.0416475
1065.84	0.0412798
1065.97	0.0415556
1066.11	0.0421072
1066.24	0.0413717
1066.37	0.041004
1066.51	0.0414636
1066.64	0.0427508
1066.78	0.0417395
1066.91	0.0414636
1067.04	0.0420153
1067.18	0.0422911
1067.31	0.0412798
1067.44	0.0415556
1067.58	0.041004
1067.71	0.041004
1067.85	0.0406362
1067.98	0.0405443
1068.11	0.0406362
1068.25	0.0406362
1068.38	0.0417395
1068.51	0.0405443
1068.65	0.0412798
1068.78	0.0408201
1068.92	0.0414636
1069.05	0.0421991
1069.18	0.0422911
1069.32	0.0412798
1069.45	0.0403604
1069.58	0.0412798
1069.72	0.0425669
1069.85	0.0418314
1069.98	0.0421072
1070.12	0.0406362
1070.25	0.0433943
1070.39	0.0421991
1070.52	0.0413717
1070.65	0.0416475
1070.79	0.0415556
1070.92	0.041004
1071.05	0.0415556
1071.19	0.0405443
1071.32	0.0404523
1071.46	0.0416475
1071.59	0.0417395
1071.72	0.041004
1071.86	0.0414636
1071.99	0.0411878
1072.12	0.0421991
1072.26	0.041004
1072.39	0.0410959
1072.53	0.0404523
1072.66	0.0417395
1072.79	0.0430266
1072.93	0.0407281
1073.06	0.0415556
1073.19	0.0431185
1073.33	0.041004
1073.46	0.0416475
1073.59	0.0416475
1073.73	0.0419233
1073.86	0.0407281
1074	0.0410959
1074.13	0.0417395
1074.26	0.0411878
1074.4	0.0410959
1074.53	0.0420153
1074.66	0.0414636
1074.8	0.0405443
1074.93	0.040912
1075.07	0.0419233
1075.2	0.0406362
1075.33	0.0398088
1075.47	0.0412798
1075.6	0.0421991
1075.73	0.0416475
1075.87	0.0412798
1076	0.0412798
1076.14	0.0428427
1076.27	0.0412798
1076.4	0.0411878
1076.54	0.040912
1076.67	0.0421072
1076.8	0.0410959
1076.94	0.0416475
1077.07	0.0413717
1077.2	0.0428427
1077.34	0.0405443
1077.47	0.0404523
1077.61	0.0425669
1077.74	0.0420153
1077.87	0.0419233
1078.01	0.0412798
1078.14	0.0417395
1078.27	0.0418314
1078.41	0.0417395
1078.54	0.0421991
1078.68	0.0413717
1078.81	0.0413717
1078.94	0.0424749
1079.08	0.0425669
1079.21	0.0421072
1079.34	0.0415556
1079.48	0.0398088
1079.61	0.0419233
1079.74	0.0410959
1079.88	0.0424749
1080.01	0.042383
1080.15	0.0413717
1080.28	0.0407281
1080.41	0.0427508
1080.55	0.0412798
1080.68	0.0416475
1080.81	0.0413717
1080.95	0.0421072
1081.08	0.0421991
1081.22	0.0414636
1081.35	0.0415556
1081.48	0.0419233
1081.62	0.042383
1081.75	0.0421072
1081.88	0.0412798
1082.02	0.0404523
1082.15	0.0434863
1082.28	0.0420153
1082.42	0.0417395
1082.55	0.0419233
1082.69	0.0424749
1082.82	0.0414636
1082.95	0.0420153
1083.09	0.0413717
1083.22	0.0418314
1083.35	0.042383
1083.49	0.0405443
1083.62	0.0416475
1083.75	0.0425669
1083.89	0.041004
1084.02	0.0405443
1084.16	0.0434863
1084.29	0.0412798
1084.42	0.0413717
1084.56	0.0419233
1084.69	0.0419233
1084.82	0.0421991
1084.96	0.0420153
1085.09	0.0417395
1085.23	0.0412798
1085.36	0.041004
1085.49	0.0424749
1085.63	0.0420153
1085.76	0.0418314
1085.89	0.0420153
1086.03	0.0413717
1086.16	0.0419233
1086.29	0.0413717
1086.43	0.040912
1086.56	0.0413717
1086.7	0.0404523
1086.83	0.041004
1086.96	0.0418314
1087.1	0.0407281
1087.23	0.0420153
1087.36	0.0425669
1087.5	0.0412798
1087.63	0.0420153
1087.76	0.0421072
1087.9	0.0410959
1088.03	0.0422911
1088.17	0.041004
1088.3	0.0422911
1088.43	0.0410959
1088.57	0.0413717
1088.7	0.0421991
1088.83	0.0425669
1088.97	0.0415556
1089.1	0.0416475
1089.24	0.0424749
1089.37	0.0428427
1089.5	0.0411878
1089.64	0.0410959
1089.77	0.0416475
1089.9	0.0420153
1090.04	0.0407281
1090.17	0.0407281
1090.3	0.0434863
1090.44	0.0414636
1090.57	0.0421072
1090.71	0.0415556
1090.84	0.041004
1090.97	0.0420153
1091.11	0.0411878
1091.24	0.0427508
1091.37	0.042383
1091.51	0.0421991
1091.64	0.0403604
1091.77	0.0420153
1091.91	0.0419233
1092.04	0.0412798
1092.18	0.0411878
1092.31	0.0421991
1092.44	0.040912
1092.58	0.0420153
1092.71	0.0415556
1092.84	0.0418314
1092.98	0.0412798
1093.11	0.0431185
1093.24	0.0413717
1093.38	0.0414636
1093.51	0.0416475
1093.65	0.039441
1093.78	0.041004
1093.91	0.0405443
1094.05	0.0421991
1094.18	0.0412798
1094.31	0.042383
1094.45	0.0427508
1094.58	0.0425669
1094.71	0.0422911
1094.85	0.0417395
1094.98	0.0416475
1095.12	0.0418314
1095.25	0.0417395
1095.38	0.0408201
1095.52	0.041004
1095.65	0.0418314
1095.78	0.0407281
1095.92	0.0416475
1096.05	0.0415556
1096.18	0.0415556
1096.32	0.0421072
1096.45	0.0422911
1096.59	0.0431185
1096.72	0.0417395
1096.85	0.0410959
1096.99	0.0416475
1097.12	0.0406362
1097.25	0.0418314
1097.39	0.0408201
1097.52	0.0429346
1097.65	0.0414636
1097.79	0.0422911
1097.92	0.0411878
1098.06	0.0416475
1098.19	0.0414636
1098.32	0.0421072
1098.46	0.0424749
1098.59	0.042383
1098.72	0.0428427
1098.86	0.0421072
1098.99	0.0411878
1099.12	0.0422911
1099.26	0.0418314
1099.39	0.0418314
1099.53	0.0420153
1099.66	0.0412798
1099.79	0.0417395
1099.93	0.0413717
1100.06	0.0420153
1100.19	0.0428427
1100.33	0.0408201
1100.46	0.041004
1100.59	0.0424749
1100.73	0.0418314
1100.86	0.0414636
1100.99	0.0411878
1101.13	0.042383
1101.26	0.0404523
1101.4	0.0413717
1101.53	0.0415556
1101.66	0.0416475
1101.8	0.0416475
1101.93	0.0434863
1102.06	0.0426588
1102.2	0.0410959
1102.33	0.0412798
1102.46	0.0421991
1102.6	0.040912
1102.73	0.0412798
1102.87	0.0427508
1103	0.0408201
1103.13	0.0422911
1103.27	0.0418314
1103.4	0.040912
1103.53	0.0418314
1103.67	0.0413717
1103.8	0.042383
1103.93	0.0425669
1104.07	0.0415556
1104.2	0.0420153
1104.34	0.0416475
1104.47	0.0417395
1104.6	0.0421072
1104.74	0.0420153
1104.87	0.0412798
1105	0.0411878
1105.14	0.0417395
1105.27	0.0418314
1105.4	0.0415556
1105.54	0.0413717
1105.67	0.041004
1105.8	0.0420153
1105.94	0.041004
1106.07	0.0424749
1106.21	0.0408201
1106.34	0.0424749
1106.47	0.0391652
1106.61	0.041004
1106.74	0.0418314
1106.87	0.0417395
1107.01	0.0411878
1107.14	0.040912
1107.27	0.0416475
1107.41	0.0425669
1107.54	0.0405443

