Source: Spectrum Viewer

Chart: Pulse Spectrum

Series: 
Wavelength (nm)	S (a.u.)
617.638	0.0898699
617.773	0.0886874
617.908	0.0894758
618.043	0.0908553
618.178	0.0884903
618.313	0.0884903
618.448	0.0873078
618.583	0.0910524
618.718	0.0894758
618.853	0.0894758
618.988	0.087702
619.123	0.0857312
619.258	0.087702
619.394	0.0908553
619.529	0.0908553
619.664	0.0869137
619.799	0.0898699
619.934	0.0878991
620.069	0.0884903
620.204	0.0898699
620.339	0.0908553
620.474	0.0857312
620.609	0.0898699
620.744	0.0882933
620.879	0.0904612
621.014	0.087702
621.149	0.0894758
621.284	0.0912495
621.419	0.0878991
621.554	0.0892787
621.689	0.0886874
621.825	0.0869137
621.96	0.0886874
622.095	0.0871108
622.23	0.0855341
622.365	0.0892787
622.5	0.0902641
622.635	0.0898699
622.77	0.0894758
622.905	0.0884903
623.04	0.0898699
623.175	0.0910524
623.31	0.0884903
623.445	0.0875049
623.58	0.0888845
623.715	0.0871108
623.85	0.0882933
623.985	0.0894758
624.12	0.0922349
624.255	0.0904612
624.39	0.0875049
624.525	0.0890816
624.661	0.0896728
624.796	0.0902641
624.931	0.0892787
625.066	0.0902641
625.201	0.0898699
625.336	0.0892787
625.471	0.0888845
625.606	0.0886874
625.741	0.090067
625.876	0.0906583
626.011	0.0880962
626.146	0.087702
626.281	0.0878991
626.416	0.0910524
626.551	0.0912495
626.686	0.0890816
626.821	0.0916437
626.956	0.0892787
627.091	0.0916437
627.226	0.0894758
627.361	0.0890816
627.496	0.0914466
627.631	0.0894758
627.766	0.0878991
627.901	0.0904612
628.036	0.0902641
628.171	0.0884903
628.307	0.0916437
628.442	0.0867166
628.577	0.0890816
628.712	0.0873078
628.847	0.0863224
628.982	0.0888845
629.117	0.0869137
629.252	0.0867166
629.387	0.0863224
629.522	0.087702
629.657	0.0894758
629.792	0.0904612
629.927	0.0882933
630.062	0.0886874
630.197	0.0892787
630.332	0.0908553
630.467	0.0894758
630.602	0.0920378
630.737	0.0867166
630.872	0.0902641
631.007	0.0886874
631.142	0.0904612
631.277	0.0888845
631.412	0.0886874
631.547	0.0878991
631.682	0.0873078
631.817	0.0890816
631.952	0.0873078
632.087	0.0880962
632.222	0.0918408
632.357	0.0910524
632.492	0.0894758
632.627	0.0873078
632.762	0.0928262
632.897	0.0890816
633.032	0.0902641
633.167	0.0898699
633.302	0.090067
633.437	0.0890816
633.572	0.0886874
633.707	0.090067
633.842	0.087702
633.978	0.0910524
634.113	0.0886874
634.248	0.0878991
634.383	0.0904612
634.518	0.0890816
634.653	0.0904612
634.788	0.0861253
634.923	0.0888845
635.058	0.0869137
635.193	0.0878991
635.328	0.0871108
635.463	0.0867166
635.598	0.0894758
635.733	0.0894758
635.868	0.0892787
636.003	0.0886874
636.138	0.0906583
636.273	0.0906583
636.408	0.0869137
636.543	0.0888845
636.678	0.0886874
636.813	0.0898699
636.948	0.0904612
637.083	0.0892787
637.218	0.0894758
637.353	0.0904612
637.488	0.0896728
637.623	0.0902641
637.758	0.0892787
637.893	0.0930233
638.028	0.0875049
638.163	0.0902641
638.298	0.087702
638.433	0.0904612
638.568	0.090067
638.703	0.087702
638.838	0.0892787
638.973	0.0875049
639.108	0.087702
639.243	0.0882933
639.378	0.0890816
639.513	0.0888845
639.648	0.0886874
639.783	0.0894758
639.918	0.0898699
640.053	0.0896728
640.188	0.0896728
640.323	0.0886874
640.458	0.0892787
640.593	0.0884903
640.728	0.0894758
640.863	0.0890816
640.998	0.0910524
641.133	0.0888845
641.268	0.0898699
641.403	0.0882933
641.538	0.0875049
641.673	0.0892787
641.808	0.0892787
641.943	0.0884903
642.078	0.0892787
642.213	0.092432
642.348	0.0888845
642.483	0.090067
642.618	0.0926291
642.753	0.0884903
642.888	0.0912495
643.023	0.0867166
643.158	0.0880962
643.293	0.0869137
643.428	0.0904612
643.563	0.0888845
643.698	0.0898699
643.833	0.0906583
643.968	0.0882933
644.103	0.0894758
644.237	0.0871108
644.372	0.0902641
644.507	0.0892787
644.642	0.0878991
644.777	0.0869137
644.912	0.0880962
645.047	0.0898699
645.182	0.0888845
645.317	0.0884903
645.452	0.0914466
645.587	0.0908553
645.722	0.0908553
645.857	0.0888845
645.992	0.0892787
646.127	0.0871108
646.262	0.0875049
646.397	0.0880962
646.532	0.0884903
646.667	0.0865195
646.802	0.0884903
646.937	0.0906583
647.072	0.0896728
647.207	0.0886874
647.342	0.0892787
647.477	0.0886874
647.612	0.0896728
647.747	0.0888845
647.882	0.0892787
648.017	0.0896728
648.152	0.0902641
648.287	0.0888845
648.422	0.0884903
648.557	0.0898699
648.692	0.0896728
648.827	0.0888845
648.962	0.0902641
649.097	0.0890816
649.232	0.090067
649.367	0.0932203
649.502	0.0896728
649.637	0.087702
649.772	0.0880962
649.906	0.0867166
650.041	0.0884903
650.176	0.0902641
650.311	0.0857312
650.446	0.0884903
650.581	0.0890816
650.716	0.090067
650.851	0.0890816
650.986	0.0892787
651.121	0.0888845
651.256	0.0878991
651.391	0.0884903
651.526	0.0875049
651.661	0.090067
651.796	0.0865195
651.931	0.0918408
652.066	0.0908553
652.201	0.0873078
652.336	0.0871108
652.471	0.0908553
652.606	0.0863224
652.741	0.0882933
652.876	0.0894758
653.011	0.0904612
653.146	0.0882933
653.281	0.0886874
653.415	0.0894758
653.55	0.087702
653.685	0.0873078
653.82	0.0886874
653.955	0.0882933
654.09	0.0878991
654.225	0.0884903
654.36	0.0882933
654.495	0.0880962
654.63	0.0888845
654.765	0.0875049
654.9	0.0869137
655.035	0.0880962
655.17	0.0894758
655.305	0.0867166
655.44	0.0882933
655.575	0.0873078
655.71	0.087702
655.845	0.0863224
655.98	0.0867166
656.115	0.0888845
656.25	0.0890816
656.384	0.0873078
656.519	0.0871108
656.654	0.0908553
656.789	0.0869137
656.924	0.0861253
657.059	0.0894758
657.194	0.0884903
657.329	0.0865195
657.464	0.0880962
657.599	0.0902641
657.734	0.0888845
657.869	0.0898699
658.004	0.0898699
658.139	0.0865195
658.274	0.0906583
658.409	0.0912495
658.544	0.0902641
658.679	0.0906583
658.813	0.0894758
658.948	0.087702
659.083	0.0922349
659.218	0.0886874
659.353	0.0875049
659.488	0.0894758
659.623	0.0894758
659.758	0.0904612
659.893	0.0878991
660.028	0.0873078
660.163	0.0920378
660.298	0.0892787
660.433	0.0869137
660.568	0.0908553
660.703	0.0908553
660.838	0.0882933
660.972	0.0880962
661.107	0.0898699
661.242	0.0886874
661.377	0.0890816
661.512	0.0906583
661.647	0.0904612
661.782	0.0914466
661.917	0.0916437
662.052	0.0882933
662.187	0.0880962
662.322	0.0902641
662.457	0.0908553
662.592	0.0894758
662.727	0.0918408
662.862	0.0892787
662.996	0.0898699
663.131	0.0878991
663.266	0.0896728
663.401	0.0884903
663.536	0.0888845
663.671	0.0869137
663.806	0.0904612
663.941	0.0882933
664.076	0.0894758
664.211	0.0880962
664.346	0.0890816
664.481	0.0904612
664.616	0.0890816
664.75	0.0855341
664.885	0.0851399
665.02	0.0910524
665.155	0.0878991
665.29	0.0878991
665.425	0.0914466
665.56	0.0878991
665.695	0.0871108
665.83	0.0902641
665.965	0.0873078
666.1	0.0906583
666.235	0.0878991
666.37	0.0888845
666.504	0.0898699
666.639	0.0908553
666.774	0.0896728
666.909	0.0882933
667.044	0.0904612
667.179	0.0892787
667.314	0.0894758
667.449	0.0926291
667.584	0.0894758
667.719	0.0896728
667.854	0.0890816
667.989	0.0888845
668.123	0.0910524
668.258	0.0888845
668.393	0.0902641
668.528	0.0922349
668.663	0.087702
668.798	0.0886874
668.933	0.0894758
669.068	0.0896728
669.203	0.0906583
669.338	0.0906583
669.473	0.0871108
669.607	0.0894758
669.742	0.0882933
669.877	0.0904612
670.012	0.0892787
670.147	0.0890816
670.282	0.0906583
670.417	0.0892787
670.552	0.0873078
670.687	0.0875049
670.822	0.0904612
670.957	0.0898699
671.091	0.0896728
671.226	0.0906583
671.361	0.0894758
671.496	0.0886874
671.631	0.0906583
671.766	0.0873078
671.901	0.0882933
672.036	0.0884903
672.171	0.0904612
672.306	0.0940087
672.44	0.0898699
672.575	0.0884903
672.71	0.0902641
672.845	0.0878991
672.98	0.0884903
673.115	0.0886874
673.25	0.0886874
673.385	0.0873078
673.52	0.0894758
673.655	0.0882933
673.789	0.0896728
673.924	0.0910524
674.059	0.0904612
674.194	0.0869137
674.329	0.0890816
674.464	0.0882933
674.599	0.0884903
674.734	0.0890816
674.869	0.087702
675.003	0.0871108
675.138	0.0884903
675.273	0.0892787
675.408	0.092432
675.543	0.0859283
675.678	0.0884903
675.813	0.0867166
675.948	0.0904612
676.083	0.0886874
676.217	0.0902641
676.352	0.0861253
676.487	0.0902641
676.622	0.0896728
676.757	0.0910524
676.892	0.087702
677.027	0.0894758
677.162	0.0906583
677.297	0.087702
677.431	0.087702
677.566	0.0890816
677.701	0.0908553
677.836	0.0892787
677.971	0.0884903
678.106	0.0912495
678.241	0.0878991
678.376	0.0894758
678.511	0.0896728
678.645	0.0863224
678.78	0.0898699
678.915	0.0896728
679.05	0.0878991
679.185	0.0880962
679.32	0.0898699
679.455	0.0916437
679.59	0.0878991
679.724	0.087702
679.859	0.0884903
679.994	0.0869137
680.129	0.0890816
680.264	0.0861253
680.399	0.090067
680.534	0.0892787
680.669	0.0871108
680.803	0.0894758
680.938	0.0910524
681.073	0.087702
681.208	0.0906583
681.343	0.0884903
681.478	0.0904612
681.613	0.0886874
681.748	0.0890816
681.882	0.0888845
682.017	0.0882933
682.152	0.0896728
682.287	0.0892787
682.422	0.0873078
682.557	0.0884903
682.692	0.0871108
682.827	0.0890816
682.961	0.0906583
683.096	0.0898699
683.231	0.0896728
683.366	0.0914466
683.501	0.0873078
683.636	0.0912495
683.771	0.0878991
683.906	0.0898699
684.04	0.0896728
684.175	0.0916437
684.31	0.0908553
684.445	0.0880962
684.58	0.0884903
684.715	0.0904612
684.85	0.0871108
684.984	0.0882933
685.119	0.0882933
685.254	0.0894758
685.389	0.0890816
685.524	0.0878991
685.659	0.0916437
685.794	0.0908553
685.928	0.0904612
686.063	0.0880962
686.198	0.0875049
686.333	0.0898699
686.468	0.087702
686.603	0.0888845
686.738	0.0865195
686.872	0.0890816
687.007	0.0886874
687.142	0.0888845
687.277	0.0902641
687.412	0.0912495
687.547	0.0878991
687.682	0.0884903
687.816	0.0890816
687.951	0.0878991
688.086	0.0871108
688.221	0.0894758
688.356	0.0904612
688.491	0.0880962
688.626	0.0888845
688.76	0.0888845
688.895	0.0906583
689.03	0.0888845
689.165	0.0878991
689.3	0.0859283
689.435	0.0884903
689.57	0.0902641
689.704	0.0888845
689.839	0.0869137
689.974	0.0884903
690.109	0.0878991
690.244	0.0886874
690.379	0.0914466
690.513	0.0898699
690.648	0.0888845
690.783	0.0890816
690.918	0.0878991
691.053	0.0894758
691.188	0.0894758
691.323	0.0888845
691.457	0.0886874
691.592	0.0888845
691.727	0.0880962
691.862	0.0878991
691.997	0.090067
692.132	0.0871108
692.266	0.0906583
692.401	0.0863224
692.536	0.0863224
692.671	0.0908553
692.806	0.0884903
692.941	0.0878991
693.075	0.0910524
693.21	0.0867166
693.345	0.0894758
693.48	0.0914466
693.615	0.090067
693.75	0.0882933
693.885	0.0886874
694.019	0.0892787
694.154	0.0894758
694.289	0.0904612
694.424	0.0910524
694.559	0.0902641
694.694	0.0867166
694.828	0.0894758
694.963	0.0892787
695.098	0.0902641
695.233	0.0863224
695.368	0.0878991
695.503	0.087702
695.637	0.090067
695.772	0.0894758
695.907	0.0882933
696.042	0.0898699
696.177	0.090067
696.312	0.0906583
696.446	0.0906583
696.581	0.0914466
696.716	0.0920378
696.851	0.0875049
696.986	0.0898699
697.12	0.087702
697.255	0.0904612
697.39	0.0875049
697.525	0.0910524
697.66	0.0873078
697.795	0.0912495
697.929	0.0890816
698.064	0.0896728
698.199	0.087702
698.334	0.087702
698.469	0.0886874
698.604	0.0886874
698.738	0.0898699
698.873	0.0884903
699.008	0.0892787
699.143	0.092432
699.278	0.0888845
699.412	0.0884903
699.547	0.0904612
699.682	0.0894758
699.817	0.0892787
699.952	0.0914466
700.087	0.0882933
700.221	0.0884903
700.356	0.0878991
700.491	0.0894758
700.626	0.0898699
700.761	0.0890816
700.895	0.0884903
701.03	0.0896728
701.165	0.0875049
701.3	0.0888845
701.435	0.0898699
701.57	0.0896728
701.704	0.0890816
701.839	0.0902641
701.974	0.0916437
702.109	0.0918408
702.244	0.0896728
702.378	0.0898699
702.513	0.0930233
702.648	0.0888845
702.783	0.0916437
702.918	0.0884903
703.052	0.0888845
703.187	0.0940087
703.322	0.0878991
703.457	0.0914466
703.592	0.0851399
703.727	0.0892787
703.861	0.0896728
703.996	0.0894758
704.131	0.0873078
704.266	0.0902641
704.401	0.0878991
704.535	0.0884903
704.67	0.0908553
704.805	0.087702
704.94	0.0886874
705.075	0.0880962
705.209	0.0878991
705.344	0.0904612
705.479	0.0882933
705.614	0.092432
705.749	0.0884903
705.883	0.0892787
706.018	0.090067
706.153	0.0878991
706.288	0.0894758
706.423	0.0859283
706.557	0.0880962
706.692	0.0886874
706.827	0.0884903
706.962	0.0910524
707.097	0.0890816
707.231	0.087702
707.366	0.0902641
707.501	0.090067
707.636	0.0886874
707.771	0.0871108
707.905	0.087702
708.04	0.0906583
708.175	0.0888845
708.31	0.0886874
708.445	0.0896728
708.579	0.0888845
708.714	0.0928262
708.849	0.0890816
708.984	0.0892787
709.118	0.0886874
709.253	0.0892787
709.388	0.0882933
709.523	0.0873078
709.658	0.0884903
709.792	0.0884903
709.927	0.0896728
710.062	0.0894758
710.197	0.0886874
710.332	0.0890816
710.466	0.0888845
710.601	0.0884903
710.736	0.0932203
710.871	0.0886874
711.006	0.0904612
711.14	0.0892787
711.275	0.090067
711.41	0.0890816
711.545	0.090067
711.679	0.0886874
711.814	0.0886874
711.949	0.0898699
712.084	0.0888845
712.219	0.0884903
712.353	0.0857312
712.488	0.0902641
712.623	0.0882933
712.758	0.0875049
712.892	0.0880962
713.027	0.087702
713.162	0.0884903
713.297	0.0890816
713.432	0.0894758
713.566	0.0896728
713.701	0.0861253
713.836	0.0875049
713.971	0.0914466
714.105	0.0888845
714.24	0.0898699
714.375	0.0873078
714.51	0.0898699
714.645	0.0875049
714.779	0.0896728
714.914	0.0886874
715.049	0.0886874
715.184	0.0880962
715.318	0.0886874
715.453	0.0894758
715.588	0.087702
715.723	0.0884903
715.858	0.0894758
715.992	0.0873078
716.127	0.0890816
716.262	0.0912495
716.397	0.0869137
716.531	0.0884903
716.666	0.0922349
716.801	0.0863224
716.936	0.0906583
717.07	0.0916437
717.205	0.0863224
717.34	0.087702
717.475	0.087702
717.61	0.0857312
717.744	0.0857312
717.879	0.0859283
718.014	0.0910524
718.149	0.0886874
718.283	0.0892787
718.418	0.0882933
718.553	0.090067
718.688	0.0882933
718.822	0.0904612
718.957	0.087702
719.092	0.090067
719.227	0.090067
719.361	0.0890816
719.496	0.0873078
719.631	0.0875049
719.766	0.0898699
719.9	0.0890816
720.035	0.087702
720.17	0.0880962
720.305	0.0886874
720.44	0.0894758
720.574	0.0908553
720.709	0.0859283
720.844	0.0857312
720.979	0.0886874
721.113	0.0875049
721.248	0.0878991
721.383	0.0880962
721.518	0.0888845
721.652	0.0861253
721.787	0.0896728
721.922	0.0898699
722.057	0.0922349
722.191	0.0890816
722.326	0.090067
722.461	0.0890816
722.596	0.0875049
722.73	0.0882933
722.865	0.0908553
723	0.0898699
723.135	0.090067
723.269	0.0878991
723.404	0.0898699
723.539	0.0878991
723.674	0.0906583
723.808	0.0882933
723.943	0.090067
724.078	0.0882933
724.213	0.0902641
724.347	0.0884903
724.482	0.0865195
724.617	0.0871108
724.752	0.0890816
724.886	0.0878991
725.021	0.0910524
725.156	0.0882933
725.291	0.0892787
725.425	0.0914466
725.56	0.0890816
725.695	0.0906583
725.829	0.0886874
725.964	0.0896728
726.099	0.0884903
726.234	0.0902641
726.368	0.0912495
726.503	0.0904612
726.638	0.0922349
726.773	0.0896728
726.907	0.0888845
727.042	0.0888845
727.177	0.0894758
727.312	0.0888845
727.446	0.0875049
727.581	0.0892787
727.716	0.0867166
727.851	0.0863224
727.985	0.0892787
728.12	0.087702
728.255	0.0888845
728.389	0.0886874
728.524	0.0886874
728.659	0.0884903
728.794	0.0882933
728.928	0.0884903
729.063	0.0890816
729.198	0.0873078
729.333	0.0906583
729.467	0.0878991
729.602	0.0869137
729.737	0.0861253
729.872	0.0884903
730.006	0.0898699
730.141	0.0902641
730.276	0.0882933
730.41	0.0880962
730.545	0.0892787
730.68	0.0888845
730.815	0.0878991
730.949	0.0882933
731.084	0.087702
731.219	0.0888845
731.354	0.0861253
731.488	0.087702
731.623	0.0871108
731.758	0.0904612
731.892	0.0888845
732.027	0.090067
732.162	0.0894758
732.297	0.0908553
732.431	0.0875049
732.566	0.0884903
732.701	0.0902641
732.835	0.0880962
732.97	0.0892787
733.105	0.0904612
733.24	0.0888845
733.374	0.0902641
733.509	0.0906583
733.644	0.0916437
733.779	0.0896728
733.913	0.0882933
734.048	0.0890816
734.183	0.0906583
734.317	0.0896728
734.452	0.0896728
734.587	0.0890816
734.722	0.0914466
734.856	0.0873078
734.991	0.0882933
735.126	0.0896728
735.26	0.0890816
735.395	0.0914466
735.53	0.0896728
735.665	0.0914466
735.799	0.0882933
735.934	0.0873078
736.069	0.0904612
736.203	0.0908553
736.338	0.0878991
736.473	0.0928262
736.607	0.0867166
736.742	0.0878991
736.877	0.0916437
737.012	0.0867166
737.146	0.0861253
737.281	0.0892787
737.416	0.0890816
737.55	0.0869137
737.685	0.0894758
737.82	0.090067
737.955	0.0878991
738.089	0.0884903
738.224	0.0890816
738.359	0.0908553
738.493	0.0882933
738.628	0.0896728
738.763	0.0896728
738.897	0.0882933
739.032	0.0904612
739.167	0.0882933
739.302	0.0894758
739.436	0.0898699
739.571	0.0892787
739.706	0.0886874
739.84	0.0910524
739.975	0.0878991
740.11	0.0910524
740.244	0.0904612
740.379	0.0896728
740.514	0.0882933
740.649	0.0878991
740.783	0.0888845
740.918	0.087702
741.053	0.0896728
741.187	0.0910524
741.322	0.0886874
741.457	0.0880962
741.591	0.0898699
741.726	0.0896728
741.861	0.0888845
741.996	0.0892787
742.13	0.087702
742.265	0.0869137
742.4	0.0945999
742.534	0.0875049
742.669	0.0884903
742.804	0.0880962
742.938	0.0865195
743.073	0.0910524
743.208	0.0884903
743.342	0.0871108
743.477	0.0890816
743.612	0.0873078
743.747	0.0888845
743.881	0.0884903
744.016	0.0884903
744.151	0.0884903
744.285	0.0908553
744.42	0.0880962
744.555	0.0890816
744.689	0.087702
744.824	0.0837603
744.959	0.0892787
745.093	0.0880962
745.228	0.0898699
745.363	0.0857312
745.497	0.0916437
745.632	0.0867166
745.767	0.0875049
745.901	0.0890816
746.036	0.0890816
746.171	0.087702
746.305	0.0896728
746.44	0.0888845
746.575	0.0867166
746.71	0.0888845
746.844	0.0920378
746.979	0.0882933
747.114	0.092432
747.248	0.0890816
747.383	0.0871108
747.518	0.0871108
747.652	0.0869137
747.787	0.0916437
747.922	0.0890816
748.056	0.0890816
748.191	0.0894758
748.326	0.0910524
748.46	0.0904612
748.595	0.0908553
748.73	0.0886874
748.864	0.0902641
748.999	0.0914466
749.134	0.0869137
749.268	0.0886874
749.403	0.0904612
749.538	0.0908553
749.672	0.0890816
749.807	0.0890816
749.942	0.090067
750.076	0.0896728
750.211	0.0880962
750.346	0.0886874
750.48	0.0890816
750.615	0.0896728
750.75	0.0892787
750.884	0.0898699
751.019	0.0871108
751.154	0.0890816
751.288	0.087702
751.423	0.0898699
751.558	0.0886874
751.692	0.0892787
751.827	0.0890816
751.962	0.0878991
752.096	0.0918408
752.231	0.0918408
752.366	0.0878991
752.5	0.0871108
752.635	0.0875049
752.77	0.090067
752.904	0.090067
753.039	0.087702
753.174	0.0894758
753.308	0.0882933
753.443	0.0890816
753.578	0.087702
753.712	0.0926291
753.847	0.0886874
753.982	0.0896728
754.116	0.0890816
754.251	0.0894758
754.386	0.0878991
754.52	0.0888845
754.655	0.0880962
754.79	0.0892787
754.924	0.0888845
755.059	0.0896728
755.194	0.0888845
755.328	0.0912495
755.463	0.0896728
755.597	0.0914466
755.732	0.0896728
755.867	0.0890816
756.001	0.0896728
756.136	0.0882933
756.271	0.0880962
756.405	0.0916437
756.54	0.090067
756.675	0.0867166
756.809	0.0875049
756.944	0.0892787
757.079	0.0902641
757.213	0.0878991
757.348	0.0910524
757.483	0.0896728
757.617	0.0898699
757.752	0.0886874
757.887	0.0880962
758.021	0.087702
758.156	0.0894758
758.29	0.0882933
758.425	0.0904612
758.56	0.0890816
758.694	0.0888845
758.829	0.0873078
758.964	0.0888845
759.098	0.0869137
759.233	0.0886874
759.368	0.0869137
759.502	0.0882933
759.637	0.0888845
759.772	0.0912495
759.906	0.0918408
760.041	0.0894758
760.175	0.0875049
760.31	0.087702
760.445	0.0912495
760.579	0.087702
760.714	0.0896728
760.849	0.0896728
760.983	0.0902641
761.118	0.0886874
761.253	0.0878991
761.387	0.0886874
761.522	0.0902641
761.656	0.0902641
761.791	0.0902641
761.926	0.0878991
762.06	0.0898699
762.195	0.0906583
762.33	0.0904612
762.464	0.0880962
762.599	0.0888845
762.733	0.0871108
762.868	0.0851399
763.003	0.090067
763.137	0.0861253
763.272	0.0888845
763.407	0.0880962
763.541	0.0922349
763.676	0.0888845
763.811	0.0894758
763.945	0.0880962
764.08	0.0906583
764.214	0.0892787
764.349	0.0916437
764.484	0.0902641
764.618	0.0861253
764.753	0.090067
764.888	0.0888845
765.022	0.0890816
765.157	0.0910524
765.291	0.0882933
765.426	0.0863224
765.561	0.0878991
765.695	0.0904612
765.83	0.0894758
765.965	0.0863224
766.099	0.0871108
766.234	0.0884903
766.368	0.0894758
766.503	0.0894758
766.638	0.0888845
766.772	0.0880962
766.907	0.0898699
767.041	0.0896728
767.176	0.0896728
767.311	0.0912495
767.445	0.0894758
767.58	0.0871108
767.715	0.0918408
767.849	0.0890816
767.984	0.0890816
768.118	0.090067
768.253	0.0882933
768.388	0.0886874
768.522	0.0892787
768.657	0.0892787
768.791	0.0880962
768.926	0.0873078
769.061	0.0912495
769.195	0.092432
769.33	0.0892787
769.465	0.0896728
769.599	0.0892787
769.734	0.0916437
769.868	0.087702
770.003	0.0904612
770.138	0.0878991
770.272	0.0869137
770.407	0.0859283
770.541	0.0896728
770.676	0.0875049
770.811	0.0910524
770.945	0.0875049
771.08	0.0898699
771.214	0.0894758
771.349	0.0873078
771.484	0.0910524
771.618	0.0892787
771.753	0.0906583
771.887	0.090067
772.022	0.0890816
772.157	0.0902641
772.291	0.0882933
772.426	0.087702
772.56	0.0884903
772.695	0.0884903
772.83	0.0898699
772.964	0.0880962
773.099	0.0906583
773.233	0.0882933
773.368	0.0878991
773.503	0.0898699
773.637	0.0888845
773.772	0.0920378
773.906	0.0875049
774.041	0.0878991
774.176	0.0890816
774.31	0.0882933
774.445	0.0896728
774.579	0.090067
774.714	0.0873078
774.849	0.0896728
774.983	0.0884903
775.118	0.0884903
775.252	0.090067
775.387	0.0908553
775.522	0.0869137
775.656	0.0898699
775.791	0.0892787
775.925	0.0878991
776.06	0.0873078
776.195	0.0896728
776.329	0.0892787
776.464	0.0865195
776.598	0.090067
776.733	0.0912495
776.868	0.0902641
777.002	0.0880962
777.137	0.0894758
777.271	0.0914466
777.406	0.0873078
777.54	0.0892787
777.675	0.0922349
777.81	0.0898699
777.944	0.0884903
778.079	0.0875049
778.213	0.090067
778.348	0.0865195
778.483	0.0884903
778.617	0.0886874
778.752	0.0884903
778.886	0.0882933
779.021	0.0898699
779.155	0.0902641
779.29	0.0880962
779.425	0.0928262
779.559	0.0878991
779.694	0.0894758
779.828	0.0888845
779.963	0.0896728
780.098	0.0930233
780.232	0.0890816
780.367	0.0904612
780.501	0.0906583
780.636	0.0896728
780.77	0.0894758
780.905	0.0878991
781.04	0.090067
781.174	0.0910524
781.309	0.0867166
781.443	0.0894758
781.578	0.0894758
781.712	0.0902641
781.847	0.0930233
781.982	0.0886874
782.116	0.0928262
782.251	0.0908553
782.385	0.0906583
782.52	0.0882933
782.654	0.087702
782.789	0.0894758
782.924	0.0890816
783.058	0.0918408
783.193	0.0894758
783.327	0.0904612
783.462	0.0888845
783.596	0.090067
783.731	0.0882933
783.866	0.0902641
784	0.0910524
784.135	0.0896728
784.269	0.0892787
784.404	0.0861253
784.538	0.0896728
784.673	0.0884903
784.808	0.0880962
784.942	0.0865195
785.077	0.0914466
785.211	0.0914466
785.346	0.087702
785.48	0.0894758
785.615	0.0902641
785.75	0.0880962
785.884	0.0894758
786.019	0.0910524
786.153	0.0873078
786.288	0.0894758
786.422	0.0884903
786.557	0.0878991
786.691	0.0880962
786.826	0.0896728
786.961	0.0878991
787.095	0.0841545
787.23	0.0878991
787.364	0.0902641
787.499	0.0922349
787.633	0.0871108
787.768	0.0875049
787.902	0.0894758
788.037	0.0910524
788.172	0.0884903
788.306	0.087702
788.441	0.092432
788.575	0.090067
788.71	0.0863224
788.844	0.0882933
788.979	0.0867166
789.113	0.0898699
789.248	0.0875049
789.383	0.0886874
789.517	0.0894758
789.652	0.0912495
789.786	0.0878991
789.921	0.0918408
790.055	0.0878991
790.19	0.0904612
790.324	0.0896728
790.459	0.0898699
790.594	0.0886874
790.728	0.087702
790.863	0.0888845
790.997	0.0873078
791.132	0.0873078
791.266	0.0886874
791.401	0.087702
791.535	0.090067
791.67	0.0902641
791.804	0.0906583
791.939	0.0884903
792.074	0.0896728
792.208	0.0880962
792.343	0.0898699
792.477	0.0892787
792.612	0.0898699
792.746	0.0875049
792.881	0.0894758
793.015	0.0890816
793.15	0.0908553
793.284	0.0912495
793.419	0.0906583
793.553	0.0890816
793.688	0.0906583
793.823	0.0892787
793.957	0.0904612
794.092	0.0884903
794.226	0.0894758
794.361	0.0869137
794.495	0.0884903
794.63	0.090067
794.764	0.0890816
794.899	0.0912495
795.033	0.0878991
795.168	0.087702
795.302	0.0892787
795.437	0.0888845
795.572	0.0894758
795.706	0.0890816
795.841	0.0890816
795.975	0.0878991
796.11	0.0890816
796.244	0.0898699
796.379	0.087702
796.513	0.0888845
796.648	0.0916437
796.782	0.087702
796.917	0.0912495
797.051	0.0882933
797.186	0.0904612
797.32	0.0871108
797.455	0.0912495
797.589	0.0904612
797.724	0.0908553
797.859	0.0896728
797.993	0.0884903
798.128	0.0914466
798.262	0.0908553
798.397	0.0875049
798.531	0.0894758
798.666	0.0880962
798.8	0.0936145
798.935	0.0908553
799.069	0.0896728
799.204	0.0886874
799.338	0.0896728
799.473	0.0902641
799.607	0.0920378
799.742	0.0849428
799.876	0.0894758
800.011	0.0863224
800.145	0.0890816
800.28	0.0910524
800.414	0.0882933
800.549	0.0884903
800.683	0.0875049
800.818	0.0878991
800.953	0.0875049
801.087	0.0894758
801.222	0.0896728
801.356	0.0896728
801.491	0.0892787
801.625	0.090067
801.76	0.090067
801.894	0.0882933
802.029	0.0902641
802.163	0.0898699
802.298	0.0916437
802.432	0.0908553
802.567	0.0910524
802.701	0.0890816
802.836	0.0922349
802.97	0.0908553
803.105	0.0920378
803.239	0.0898699
803.374	0.0898699
803.508	0.0894758
803.643	0.0912495
803.777	0.0886874
803.912	0.0884903
804.046	0.0902641
804.181	0.0920378
804.315	0.0906583
804.45	0.0896728
804.584	0.0898699
804.719	0.0908553
804.853	0.0878991
804.988	0.0910524
805.122	0.0888845
805.257	0.0890816
805.391	0.0914466
805.526	0.0873078
805.66	0.0875049
805.795	0.0920378
805.929	0.0892787
806.064	0.0894758
806.198	0.0912495
806.333	0.0916437
806.467	0.0916437
806.602	0.0916437
806.736	0.0934174
806.871	0.0926291
807.005	0.0928262
807.14	0.0930233
807.274	0.0908553
807.409	0.0938116
807.543	0.0926291
807.678	0.0942058
807.812	0.0955853
807.947	0.0973591
808.081	0.0949941
808.216	0.0987387
808.35	0.0953883
808.485	0.0997241
808.619	0.102483
808.754	0.107804
808.888	0.129287
809.023	0.218762
809.157	0.319472
809.292	0.321048
809.426	0.346472
809.561	0.647221
809.695	0.797399
809.83	0.572921
809.964	0.506701
810.099	0.783209
810.233	0.93713
810.368	1
810.502	0.295428
810.637	0.131257
810.771	0.110958
810.906	0.103666
811.04	0.108593
811.175	0.17028
811.309	0.249704
811.444	0.196886
811.578	0.116279
811.713	0.0916437
811.847	0.0936145
811.982	0.0926291
812.116	0.0908553
812.251	0.0918408
812.385	0.0914466
812.519	0.0902641
812.654	0.0904612
812.788	0.0892787
812.923	0.0898699
813.057	0.0886874
813.192	0.0932203
813.326	0.0916437
813.461	0.0898699
813.595	0.0902641
813.73	0.0920378
813.864	0.0894758
813.999	0.0865195
814.133	0.0894758
814.268	0.0898699
814.402	0.0896728
814.537	0.0902641
814.671	0.0902641
814.806	0.0892787
814.94	0.0916437
815.075	0.0878991
815.209	0.0908553
815.344	0.0908553
815.478	0.0906583
815.612	0.0904612
815.747	0.0875049
815.881	0.0859283
816.016	0.0873078
816.15	0.0908553
816.285	0.0920378
816.419	0.0916437
816.554	0.0890816
816.688	0.0896728
816.823	0.0894758
816.957	0.0908553
817.092	0.0878991
817.226	0.0892787
817.361	0.0942058
817.495	0.090067
817.63	0.0886874
817.764	0.0906583
817.898	0.0867166
818.033	0.0867166
818.167	0.0928262
818.302	0.090067
818.436	0.0880962
818.571	0.0878991
818.705	0.0892787
818.84	0.0888845
818.974	0.0888845
819.109	0.0910524
819.243	0.0904612
819.378	0.0902641
819.512	0.0896728
819.646	0.0888845
819.781	0.0910524
819.915	0.0908553
820.05	0.0892787
820.184	0.0882933
820.319	0.0898699
820.453	0.0894758
820.588	0.090067
820.722	0.090067
820.857	0.0859283
820.991	0.090067
821.126	0.0922349
821.26	0.0896728
821.394	0.0898699
821.529	0.0894758
821.663	0.0878991
821.798	0.0875049
821.932	0.0884903
822.067	0.0875049
822.201	0.0880962
822.336	0.0896728
822.47	0.0865195
822.605	0.0902641
822.739	0.0884903
822.873	0.0894758
823.008	0.0888845
823.142	0.0894758
823.277	0.0888845
823.411	0.0902641
823.546	0.0867166
823.68	0.0906583
823.815	0.0890816
823.949	0.0904612
824.083	0.0892787
824.218	0.087702
824.352	0.0873078
824.487	0.0890816
824.621	0.0878991
824.756	0.0894758
824.89	0.0878991
825.025	0.0892787
825.159	0.0878991
825.293	0.0875049
825.428	0.0886874
825.562	0.0890816
825.697	0.0892787
825.831	0.0914466
825.966	0.0855341
826.1	0.0894758
826.235	0.0902641
826.369	0.0865195
826.503	0.0892787
826.638	0.0902641
826.772	0.0865195
826.907	0.0914466
827.041	0.0902641
827.176	0.0896728
827.31	0.0873078
827.445	0.0890816
827.579	0.0896728
827.713	0.0888845
827.848	0.0916437
827.982	0.0861253
828.117	0.0904612
828.251	0.0906583
828.386	0.0871108
828.52	0.0908553
828.654	0.0898699
828.789	0.0904612
828.923	0.0884903
829.058	0.0871108
829.192	0.0875049
829.327	0.0871108
829.461	0.0873078
829.596	0.0863224
829.73	0.0865195
829.864	0.0894758
829.999	0.087702
830.133	0.0904612
830.268	0.0894758
830.402	0.0880962
830.537	0.0894758
830.671	0.0867166
830.805	0.0904612
830.94	0.0890816
831.074	0.0892787
831.209	0.090067
831.343	0.0873078
831.478	0.0880962
831.612	0.0882933
831.746	0.0878991
831.881	0.0894758
832.015	0.0878991
832.15	0.0902641
832.284	0.0882933
832.418	0.0926291
832.553	0.0878991
832.687	0.0922349
832.822	0.0890816
832.956	0.0884903
833.091	0.0871108
833.225	0.0884903
833.359	0.0920378
833.494	0.0875049
833.628	0.0888845
833.763	0.0890816
833.897	0.0898699
834.032	0.0871108
834.166	0.0890816
834.3	0.0892787
834.435	0.0898699
834.569	0.0888845
834.704	0.0871108
834.838	0.0871108
834.972	0.0894758
835.107	0.0884903
835.241	0.0884903
835.376	0.0898699
835.51	0.0875049
835.645	0.0904612
835.779	0.0882933
835.913	0.0902641
836.048	0.0912495
836.182	0.0914466
836.317	0.0896728
836.451	0.0898699
836.585	0.0880962
836.72	0.0894758
836.854	0.0896728
836.989	0.0912495
837.123	0.0888845
837.257	0.0878991
837.392	0.0886874
837.526	0.0910524
837.661	0.0869137
837.795	0.0906583
837.929	0.0882933
838.064	0.0882933
838.198	0.0888845
838.333	0.0888845
838.467	0.0890816
838.602	0.0894758
838.736	0.0884903
838.87	0.087702
839.005	0.087702
839.139	0.0880962
839.274	0.0894758
839.408	0.0898699
839.542	0.092432
839.677	0.0886874
839.811	0.0869137
839.946	0.0922349
840.08	0.0859283
840.214	0.0880962
840.349	0.0871108
840.483	0.0882933
840.618	0.0882933
840.752	0.0910524
840.886	0.0890816
841.021	0.0869137
841.155	0.0884903
841.29	0.0918408
841.424	0.0882933
841.558	0.0886874
841.693	0.090067
841.827	0.0894758
841.961	0.0882933
842.096	0.0906583
842.23	0.0867166
842.365	0.0892787
842.499	0.0884903
842.633	0.0861253
842.768	0.0871108
842.902	0.0886874
843.037	0.0867166
843.171	0.0904612
843.305	0.0894758
843.44	0.0886874
843.574	0.0908553
843.709	0.0878991
843.843	0.0869137
843.977	0.0914466
844.112	0.0890816
844.246	0.0906583
844.381	0.0906583
844.515	0.0918408
844.649	0.0882933
844.784	0.0914466
844.918	0.0906583
845.052	0.0912495
845.187	0.0906583
845.321	0.0918408
845.456	0.0896728
845.59	0.0894758
845.724	0.090067
845.859	0.0878991
845.993	0.0888845
846.128	0.0892787
846.262	0.0892787
846.396	0.0867166
846.531	0.0910524
846.665	0.0878991
846.799	0.087702
846.934	0.0902641
847.068	0.0878991
847.203	0.0890816
847.337	0.0863224
847.471	0.092432
847.606	0.0878991
847.74	0.0904612
847.874	0.0884903
848.009	0.0908553
848.143	0.0894758
848.278	0.085337
848.412	0.090067
848.546	0.0869137
848.681	0.0843516
848.815	0.0884903
848.949	0.0896728
849.084	0.0896728
849.218	0.0918408
849.353	0.0906583
849.487	0.0890816
849.621	0.0922349
849.756	0.0896728
849.89	0.0880962
850.024	0.0875049
850.159	0.0918408
850.293	0.0884903
850.428	0.0892787
850.562	0.0869137
850.696	0.0916437
850.831	0.0916437
850.965	0.0882933
851.099	0.0878991
851.234	0.0902641
851.368	0.0873078
851.502	0.0865195
851.637	0.0882933
851.771	0.087702
851.906	0.0906583
852.04	0.0888845
852.174	0.0880962
852.309	0.0902641
852.443	0.0896728
852.577	0.0871108
852.712	0.0888845
852.846	0.0898699
852.98	0.0884903
853.115	0.0886874
853.249	0.0894758
853.384	0.0878991
853.518	0.0888845
853.652	0.0896728
853.787	0.0890816
853.921	0.0888845
854.055	0.0894758
854.19	0.0908553
854.324	0.0861253
854.458	0.090067
854.593	0.092432
854.727	0.0880962
854.861	0.0896728
854.996	0.0906583
855.13	0.0904612
855.265	0.0890816
855.399	0.0908553
855.533	0.0865195
855.668	0.0886874
855.802	0.0894758
855.936	0.0896728
856.071	0.090067
856.205	0.0912495
856.339	0.0914466
856.474	0.0902641
856.608	0.0896728
856.742	0.0892787
856.877	0.0890816
857.011	0.0882933
857.145	0.090067
857.28	0.0914466
857.414	0.0904612
857.549	0.0896728
857.683	0.0896728
857.817	0.0904612
857.952	0.0918408
858.086	0.0910524
858.22	0.0878991
858.355	0.0875049
858.489	0.0871108
858.623	0.0898699
858.758	0.0898699
858.892	0.0878991
859.026	0.0914466
859.161	0.0904612
859.295	0.0869137
859.429	0.0896728
859.564	0.0922349
859.698	0.0926291
859.832	0.0904612
859.967	0.0886874
860.101	0.0890816
860.235	0.0886874
860.37	0.0869137
860.504	0.0906583
860.638	0.0869137
860.773	0.0880962
860.907	0.0898699
861.041	0.0896728
861.176	0.0938116
861.31	0.0896728
861.444	0.0888845
861.579	0.0875049
861.713	0.0884903
861.847	0.0875049
861.982	0.0888845
862.116	0.0904612
862.25	0.0878991
862.385	0.0890816
862.519	0.087702
862.653	0.0910524
862.788	0.0867166
862.922	0.0926291
863.056	0.0904612
863.191	0.0875049
863.325	0.0898699
863.459	0.0914466
863.594	0.0875049
863.728	0.0892787
863.862	0.0898699
863.997	0.0910524
864.131	0.0878991
864.265	0.0882933
864.4	0.0886874
864.534	0.0857312
864.668	0.0871108
864.803	0.090067
864.937	0.0888845
865.071	0.0902641
865.206	0.0898699
865.34	0.0914466
865.474	0.0898699
865.609	0.0886874
865.743	0.087702
865.877	0.0878991
866.012	0.0869137
866.146	0.0904612
866.28	0.0875049
866.415	0.0882933
866.549	0.092432
866.683	0.0910524
866.818	0.0890816
866.952	0.0896728
867.086	0.0880962
867.221	0.0886874
867.355	0.0890816
867.489	0.0873078
867.623	0.0914466
867.758	0.0886874
867.892	0.0857312
868.026	0.0892787
868.161	0.0888845
868.295	0.0906583
868.429	0.0904612
868.564	0.0873078
868.698	0.0878991
868.832	0.0878991
868.967	0.0861253
869.101	0.0898699
869.235	0.0878991
869.37	0.0912495
869.504	0.0886874
869.638	0.0869137
869.773	0.0863224
869.907	0.0914466
870.041	0.0888845
870.175	0.0875049
870.31	0.0882933
870.444	0.0902641
870.578	0.0890816
870.713	0.0910524
870.847	0.0886874
870.981	0.0898699
871.116	0.0894758
871.25	0.0890816
871.384	0.0894758
871.519	0.0898699
871.653	0.0888845
871.787	0.0894758
871.921	0.0896728
872.056	0.0884903
872.19	0.0888845
872.324	0.0926291
872.459	0.0884903
872.593	0.0902641
872.727	0.0890816
872.862	0.0882933
872.996	0.0904612
873.13	0.0898699
873.264	0.0892787
873.399	0.0871108
873.533	0.0906583
873.667	0.0892787
873.802	0.0890816
873.936	0.0884903
874.07	0.0920378
874.205	0.0892787
874.339	0.0890816
874.473	0.0890816
874.607	0.0908553
874.742	0.0914466
874.876	0.0884903
875.01	0.0910524
875.145	0.0867166
875.279	0.0906583
875.413	0.0912495
875.548	0.0863224
875.682	0.0896728
875.816	0.0863224
875.95	0.0880962
876.085	0.0882933
876.219	0.0888845
876.353	0.0882933
876.488	0.0875049
876.622	0.087702
876.756	0.0871108
876.89	0.0894758
877.025	0.0884903
877.159	0.0882933
877.293	0.0890816
877.428	0.0863224
877.562	0.0910524
877.696	0.0873078
877.83	0.0902641
877.965	0.0875049
878.099	0.0908553
878.233	0.0886874
878.368	0.0894758
878.502	0.0865195
878.636	0.0890816
878.77	0.0904612
878.905	0.0918408
879.039	0.0886874
879.173	0.0884903
879.308	0.0898699
879.442	0.087702
879.576	0.0867166
879.71	0.0906583
879.845	0.0926291
879.979	0.0888845
880.113	0.0918408
880.248	0.0863224
880.382	0.0906583
880.516	0.0867166
880.65	0.0888845
880.785	0.0912495
880.919	0.0878991
881.053	0.0886874
881.188	0.0882933
881.322	0.0902641
881.456	0.0886874
881.59	0.0892787
881.725	0.0873078
881.859	0.0875049
881.993	0.0882933
882.127	0.0920378
882.262	0.0878991
882.396	0.0902641
882.53	0.0902641
882.665	0.0922349
882.799	0.0880962
882.933	0.0886874
883.067	0.0871108
883.202	0.0898699
883.336	0.0875049
883.47	0.0912495
883.604	0.0888845
883.739	0.0908553
883.873	0.0894758
884.007	0.0896728
884.142	0.0871108
884.276	0.0896728
884.41	0.0898699
884.544	0.0914466
884.679	0.0892787
884.813	0.0906583
884.947	0.0865195
885.081	0.0882933
885.216	0.0902641
885.35	0.0894758
885.484	0.0894758
885.618	0.0878991
885.753	0.0896728
885.887	0.0863224
886.021	0.0873078
886.155	0.0875049
886.29	0.0888845
886.424	0.0871108
886.558	0.0888845
886.693	0.0890816
886.827	0.090067
886.961	0.0871108
887.095	0.0902641
887.23	0.0906583
887.364	0.0884903
887.498	0.0894758
887.632	0.087702
887.767	0.0880962
887.901	0.0882933
888.035	0.090067
888.169	0.0843516
888.304	0.0890816
888.438	0.0886874
888.572	0.0896728
888.706	0.0894758
888.841	0.0884903
888.975	0.0880962
889.109	0.0908553
889.243	0.0908553
889.378	0.0892787
889.512	0.0878991
889.646	0.0890816
889.78	0.0916437
889.915	0.0875049
890.049	0.0869137
890.183	0.0926291
890.317	0.0902641
890.452	0.0882933
890.586	0.0908553
890.72	0.0890816
890.854	0.0875049
890.989	0.0904612
891.123	0.0880962
891.257	0.0875049
891.391	0.085337
891.526	0.0863224
891.66	0.0896728
891.794	0.0878991
891.928	0.0875049
892.063	0.0908553
892.197	0.0878991
892.331	0.0890816
892.465	0.0894758
892.6	0.0890816
892.734	0.0888845
892.868	0.0910524
893.002	0.0904612
893.137	0.0918408
893.271	0.087702
893.405	0.0896728
893.539	0.0902641
893.674	0.0918408
893.808	0.090067
893.942	0.0878991
894.076	0.0890816
894.21	0.0880962
894.345	0.0847458
894.479	0.090067
894.613	0.0878991
894.747	0.087702
894.882	0.0896728
895.016	0.0875049
895.15	0.0867166
895.284	0.0886874
895.419	0.0888845
895.553	0.0875049
895.687	0.087702
895.821	0.0890816
895.956	0.0871108
896.09	0.0888845
896.224	0.0918408
896.358	0.0886874
896.492	0.0888845
896.627	0.0890816
896.761	0.0884903
896.895	0.0908553
897.029	0.090067
897.164	0.0888845
897.298	0.0884903
897.432	0.0892787
897.566	0.0896728
897.701	0.0878991
897.835	0.0886874
897.969	0.0896728
898.103	0.0882933
898.237	0.0898699
898.372	0.0886874
898.506	0.0871108
898.64	0.0865195
898.774	0.0863224
898.909	0.0904612
899.043	0.0873078
899.177	0.0888845
899.311	0.0867166
899.445	0.0894758
899.58	0.0906583
899.714	0.0906583
899.848	0.0920378
899.982	0.085337
900.117	0.0863224
900.251	0.0884903
900.385	0.0904612
900.519	0.0904612
900.653	0.0884903
900.788	0.0892787
900.922	0.0902641
901.056	0.0869137
901.19	0.0908553
901.325	0.0896728
901.459	0.0871108
901.593	0.0871108
901.727	0.0892787
901.861	0.087702
901.996	0.0906583
902.13	0.0896728
902.264	0.0873078
902.398	0.0878991
902.532	0.0904612
902.667	0.0898699
902.801	0.0878991
902.935	0.0906583
903.069	0.0890816
903.204	0.0882933
903.338	0.090067
903.472	0.0869137
903.606	0.0882933
903.74	0.0912495
903.875	0.0880962
904.009	0.0886874
904.143	0.0894758
904.277	0.0878991
904.411	0.0902641
904.546	0.0920378
904.68	0.0873078
904.814	0.0894758
904.948	0.0904612
905.082	0.087702
905.217	0.0894758
905.351	0.0910524
905.485	0.0906583
905.619	0.0920378
905.753	0.0904612
905.888	0.0875049
906.022	0.0904612
906.156	0.087702
906.29	0.0898699
906.424	0.0904612
906.559	0.090067
906.693	0.0890816
906.827	0.0898699
906.961	0.0873078
907.095	0.0890816
907.23	0.0920378
907.364	0.0871108
907.498	0.0914466
907.632	0.0882933
907.766	0.0894758
907.901	0.0878991
908.035	0.0886874
908.169	0.0871108
908.303	0.0890816
908.437	0.0875049
908.572	0.0910524
908.706	0.0871108
908.84	0.0855341
908.974	0.0875049
909.108	0.087702
909.243	0.0875049
909.377	0.0884903
909.511	0.0886874
909.645	0.0875049
909.779	0.087702
909.914	0.0882933
910.048	0.0888845
910.182	0.0890816
910.316	0.0878991
910.45	0.0873078
910.585	0.0869137
910.719	0.0884903
910.853	0.0882933
910.987	0.0863224
911.121	0.0908553
911.255	0.090067
911.39	0.0904612
911.524	0.0898699
911.658	0.0871108
911.792	0.0878991
911.926	0.090067
912.061	0.0918408
912.195	0.0896728
912.329	0.0880962
912.463	0.0857312
912.597	0.0875049
912.732	0.0880962
912.866	0.0886874
913	0.0894758
913.134	0.0894758
913.268	0.0847458
913.402	0.0884903
913.537	0.0882933
913.671	0.0896728
913.805	0.0904612
913.939	0.0880962
914.073	0.0902641
914.208	0.0906583
914.342	0.0878991
914.476	0.0878991
914.61	0.0886874
914.744	0.0894758
914.878	0.0886874
915.013	0.0865195
915.147	0.0882933
915.281	0.0894758
915.415	0.0898699
915.549	0.0918408
915.683	0.090067
915.818	0.0898699
915.952	0.0908553
916.086	0.0898699
916.22	0.0898699
916.354	0.0871108
916.488	0.0892787
916.623	0.0873078
916.757	0.0898699
916.891	0.0886874
917.025	0.0886874
917.159	0.0898699
917.293	0.0888845
917.428	0.087702
917.562	0.0875049
917.696	0.0878991
917.83	0.0888845
917.964	0.0926291
918.098	0.0880962
918.233	0.0873078
918.367	0.0890816
918.501	0.0880962
918.635	0.0902641
918.769	0.0863224
918.903	0.0912495
919.038	0.087702
919.172	0.0896728
919.306	0.0898699
919.44	0.0869137
919.574	0.0892787
919.708	0.0894758
919.843	0.087702
919.977	0.0894758
920.111	0.0882933
920.245	0.0906583
920.379	0.0902641
920.513	0.0906583
920.648	0.0896728
920.782	0.0880962
920.916	0.0871108
921.05	0.0910524
921.184	0.0888845
921.318	0.0859283
921.453	0.0875049
921.587	0.0888845
921.721	0.0928262
921.855	0.0890816
921.989	0.0880962
922.123	0.0912495
922.257	0.0884903
922.392	0.0859283
922.526	0.0867166
922.66	0.0912495
922.794	0.0912495
922.928	0.0898699
923.062	0.0878991
923.197	0.0918408
923.331	0.0890816
923.465	0.0898699
923.599	0.0888845
923.733	0.0875049
923.867	0.0851399
924.001	0.0888845
924.136	0.0886874
924.27	0.0912495
924.404	0.0875049
924.538	0.0910524
924.672	0.0884903
924.806	0.0859283
924.94	0.0902641
925.075	0.0902641
925.209	0.0880962
925.343	0.0916437
925.477	0.0873078
925.611	0.0878991
925.745	0.0904612
925.879	0.0865195
926.014	0.0896728
926.148	0.0906583
926.282	0.0912495
926.416	0.0880962
926.55	0.0898699
926.684	0.0882933
926.818	0.0886874
926.953	0.0908553
927.087	0.0902641
927.221	0.0902641
927.355	0.0869137
927.489	0.0869137
927.623	0.0884903
927.757	0.0878991
927.892	0.0880962
928.026	0.0869137
928.16	0.0906583
928.294	0.0894758
928.428	0.0896728
928.562	0.0898699
928.696	0.090067
928.831	0.0873078
928.965	0.0922349
929.099	0.0898699
929.233	0.0859283
929.367	0.0906583
929.501	0.0898699
929.635	0.0865195
929.769	0.0908553
929.904	0.0886874
930.038	0.0912495
930.172	0.0880962
930.306	0.0878991
930.44	0.0892787
930.574	0.0912495
930.708	0.0884903
930.843	0.0896728
930.977	0.0916437
931.111	0.0902641
931.245	0.0888845
931.379	0.0878991
931.513	0.0873078
931.647	0.0882933
931.781	0.0878991
931.916	0.0886874
932.05	0.0886874
932.184	0.0892787
932.318	0.0906583
932.452	0.0904612
932.586	0.0884903
932.72	0.0871108
932.854	0.0894758
932.989	0.0896728
933.123	0.0896728
933.257	0.0896728
933.391	0.0869137
933.525	0.0884903
933.659	0.0906583
933.793	0.0918408
933.927	0.0906583
934.061	0.0922349
934.196	0.0892787
934.33	0.0871108
934.464	0.0867166
934.598	0.0882933
934.732	0.092432
934.866	0.0918408
935	0.0875049
935.134	0.0880962
935.269	0.0892787
935.403	0.0869137
935.537	0.0894758
935.671	0.0884903
935.805	0.0880962
935.939	0.0861253
936.073	0.0894758
936.207	0.0896728
936.341	0.0884903
936.476	0.0871108
936.61	0.0926291
936.744	0.0875049
936.878	0.0902641
937.012	0.0912495
937.146	0.0904612
937.28	0.0892787
937.414	0.0884903
937.548	0.090067
937.683	0.0892787
937.817	0.0896728
937.951	0.0910524
938.085	0.087702
938.219	0.0902641
938.353	0.0896728
938.487	0.0882933
938.621	0.0847458
938.755	0.090067
938.889	0.0902641
939.024	0.0902641
939.158	0.0886874
939.292	0.0894758
939.426	0.090067
939.56	0.0882933
939.694	0.0884903
939.828	0.0886874
939.962	0.0888845
940.096	0.0892787
940.231	0.0912495
940.365	0.0898699
940.499	0.0892787
940.633	0.0894758
940.767	0.0910524
940.901	0.0863224
941.035	0.0896728
941.169	0.0894758
941.303	0.0863224
941.437	0.0871108
941.571	0.0878991
941.706	0.0882933
941.84	0.0912495
941.974	0.0904612
942.108	0.0888845
942.242	0.090067
942.376	0.0902641
942.51	0.0888845
942.644	0.0882933
942.778	0.0890816
942.912	0.0890816
943.047	0.087702
943.181	0.0908553
943.315	0.0867166
943.449	0.0882933
943.583	0.0896728
943.717	0.0902641
943.851	0.090067
943.985	0.0880962
944.119	0.0880962
944.253	0.0873078
944.387	0.0867166
944.522	0.0898699
944.656	0.0910524
944.79	0.0873078
944.924	0.0888845
945.058	0.0902641
945.192	0.0878991
945.326	0.0875049
945.46	0.0898699
945.594	0.0888845
945.728	0.090067
945.862	0.0912495
945.996	0.0884903
946.131	0.0888845
946.265	0.0898699
946.399	0.0910524
946.533	0.0878991
946.667	0.0908553
946.801	0.0880962
946.935	0.0884903
947.069	0.0884903
947.203	0.0878991
947.337	0.0886874
947.471	0.0906583
947.605	0.0902641
947.739	0.0896728
947.874	0.0880962
948.008	0.0875049
948.142	0.0878991
948.276	0.0890816
948.41	0.0888845
948.544	0.0873078
948.678	0.0898699
948.812	0.0902641
948.946	0.0892787
949.08	0.0888845
949.214	0.0910524
949.348	0.0892787
949.482	0.0880962
949.617	0.0906583
949.751	0.0871108
949.885	0.0880962
950.019	0.0871108
950.153	0.087702
950.287	0.0896728
950.421	0.0886874
950.555	0.0912495
950.689	0.0892787
950.823	0.0871108
950.957	0.0886874
951.091	0.0906583
951.225	0.0896728
951.359	0.0845487
951.493	0.0886874
951.628	0.0878991
951.762	0.0880962
951.896	0.087702
952.03	0.0855341
952.164	0.0880962
952.298	0.0869137
952.432	0.090067
952.566	0.0902641
952.7	0.0880962
952.834	0.0869137
952.968	0.0886874
953.102	0.0906583
953.236	0.090067
953.37	0.0878991
953.504	0.0886874
953.639	0.0904612
953.773	0.0906583
953.907	0.0886874
954.041	0.0890816
954.175	0.0873078
954.309	0.0873078
954.443	0.087702
954.577	0.0886874
954.711	0.0873078
954.845	0.0914466
954.979	0.0875049
955.113	0.0873078
955.247	0.0888845
955.381	0.0890816
955.515	0.0896728
955.649	0.090067
955.783	0.0878991
955.917	0.0861253
956.052	0.0918408
956.186	0.0914466
956.32	0.0910524
956.454	0.0922349
956.588	0.0882933
956.722	0.0888845
956.856	0.0867166
956.99	0.0896728
957.124	0.0892787
957.258	0.0918408
957.392	0.0898699
957.526	0.0902641
957.66	0.0928262
957.794	0.0882933
957.928	0.0884903
958.062	0.0898699
958.196	0.0890816
958.33	0.0908553
958.464	0.0890816
958.598	0.0898699
958.733	0.0882933
958.867	0.0896728
959.001	0.0892787
959.135	0.0884903
959.269	0.092432
959.403	0.0908553
959.537	0.085337
959.671	0.0902641
959.805	0.0894758
959.939	0.0910524
960.073	0.0890816
960.207	0.0882933
960.341	0.0892787
960.475	0.0855341
960.609	0.0878991
960.743	0.090067
960.877	0.0892787
961.011	0.0896728
961.145	0.0894758
961.279	0.0912495
961.413	0.0918408
961.547	0.0910524
961.681	0.0869137
961.815	0.0898699
961.949	0.0896728
962.083	0.0904612
962.218	0.0882933
962.352	0.0904612
962.486	0.0882933
962.62	0.0888845
962.754	0.0920378
962.888	0.0882933
963.022	0.0869137
963.156	0.0890816
963.29	0.087702
963.424	0.0908553
963.558	0.0914466
963.692	0.0920378
963.826	0.0898699
963.96	0.0888845
964.094	0.0875049
964.228	0.0871108
964.362	0.0888845
964.496	0.0916437
964.63	0.0871108
964.764	0.0886874
964.898	0.0902641
965.032	0.0894758
965.166	0.0918408
965.3	0.0865195
965.434	0.0871108
965.568	0.0869137
965.702	0.0873078
965.836	0.0867166
965.97	0.0886874
966.104	0.0867166
966.238	0.0894758
966.372	0.0892787
966.506	0.0896728
966.64	0.0906583
966.774	0.0888845
966.908	0.0914466
967.043	0.0888845
967.177	0.0884903
967.311	0.0880962
967.445	0.0882933
967.579	0.0926291
967.713	0.0869137
967.847	0.0875049
967.981	0.090067
968.115	0.0873078
968.249	0.0888845
968.383	0.0908553
968.517	0.0890816
968.651	0.0890816
968.785	0.0867166
968.919	0.0888845
969.053	0.0867166
969.187	0.0904612
969.321	0.0904612
969.455	0.0894758
969.589	0.0888845
969.723	0.0888845
969.857	0.0896728
969.991	0.0863224
970.125	0.0908553
970.259	0.0894758
970.393	0.0869137
970.527	0.0898699
970.661	0.0871108
970.795	0.0910524
970.929	0.0882933
971.063	0.0871108
971.197	0.0898699
971.331	0.0890816
971.465	0.0898699
971.599	0.0886874
971.733	0.0873078
971.867	0.0890816
972.001	0.0878991
972.135	0.0916437
972.269	0.0912495
972.403	0.0896728
972.537	0.0908553
972.671	0.0875049
972.805	0.0898699
972.939	0.0894758
973.073	0.0896728
973.207	0.090067
973.341	0.0871108
973.475	0.0902641
973.609	0.0884903
973.743	0.0892787
973.877	0.0894758
974.011	0.0884903
974.145	0.0896728
974.279	0.0890816
974.413	0.0894758
974.547	0.0880962
974.681	0.0902641
974.815	0.0904612
974.949	0.0894758
975.083	0.0894758
975.217	0.0857312
975.351	0.0878991
975.485	0.0902641
975.619	0.0910524
975.753	0.0904612
975.887	0.0888845
976.021	0.0902641
976.155	0.0878991
976.289	0.0896728
976.423	0.0878991
976.557	0.0910524
976.691	0.090067
976.825	0.0902641
976.959	0.0890816
977.093	0.0890816
977.227	0.0878991
977.361	0.0882933
977.495	0.0884903
977.629	0.090067
977.763	0.0904612
977.897	0.0884903
978.031	0.0914466
978.165	0.0869137
978.299	0.0890816
978.433	0.0888845
978.567	0.0839574
978.701	0.0882933
978.835	0.0880962
978.969	0.0910524
979.103	0.0912495
979.237	0.0878991
979.371	0.0886874
979.505	0.0871108
979.639	0.0916437
979.773	0.0884903
979.907	0.0918408
980.041	0.0894758
980.175	0.0888845
980.308	0.0908553
980.442	0.0873078
980.576	0.0878991
980.71	0.0882933
980.844	0.0884903
980.978	0.0916437
981.112	0.0875049
981.246	0.0896728
981.38	0.0871108
981.514	0.0930233
981.648	0.0902641
981.782	0.0888845
981.916	0.0867166
982.05	0.0898699
982.184	0.0892787
982.318	0.0882933
982.452	0.092432
982.586	0.0896728
982.72	0.0914466
982.854	0.0886874
982.988	0.0896728
983.122	0.0890816
983.256	0.0894758
983.39	0.0902641
983.524	0.0886874
983.658	0.090067
983.792	0.0904612
983.926	0.0873078
984.06	0.0904612
984.194	0.0867166
984.328	0.0894758
984.462	0.0869137
984.596	0.0898699
984.73	0.0902641
984.864	0.0888845
984.998	0.0906583
985.132	0.0890816
985.265	0.087702
985.399	0.0894758
985.533	0.0878991
985.667	0.0910524
985.801	0.0882933
985.935	0.0892787
986.069	0.0880962
986.203	0.0878991
986.337	0.0898699
986.471	0.0869137
986.605	0.0875049
986.739	0.0898699
986.873	0.0884903
987.007	0.0894758
987.141	0.0922349
987.275	0.0912495
987.409	0.0888845
987.543	0.0906583
987.677	0.0880962
987.811	0.0880962
987.945	0.0873078
988.079	0.0892787
988.213	0.0892787
988.347	0.0882933
988.481	0.0892787
988.614	0.090067
988.748	0.0867166
988.882	0.090067
989.016	0.0869137
989.15	0.0894758
989.284	0.0898699
989.418	0.0878991
989.552	0.0894758
989.686	0.0880962
989.82	0.0880962
989.954	0.0894758
990.088	0.090067
990.222	0.0880962
990.356	0.0857312
990.49	0.090067
990.624	0.0880962
990.758	0.0920378
990.892	0.0880962
991.026	0.0910524
991.16	0.087702
991.294	0.0884903
991.427	0.0890816
991.561	0.0896728
991.695	0.0914466
991.829	0.0882933
991.963	0.0859283
992.097	0.0890816
992.231	0.0890816
992.365	0.0892787
992.499	0.0871108
992.633	0.0878991
992.767	0.0857312
992.901	0.0873078
993.035	0.0898699
993.169	0.0882933
993.303	0.0880962
993.437	0.0894758
993.571	0.0888845
993.704	0.0888845
993.838	0.0894758
993.972	0.087702
994.106	0.0894758
994.24	0.0888845
994.374	0.0888845
994.508	0.0894758
994.642	0.0882933
994.776	0.0884903
994.91	0.0906583
995.044	0.0896728
995.178	0.090067
995.312	0.0906583
995.446	0.0888845
995.58	0.0892787
995.714	0.0912495
995.847	0.0882933
995.981	0.0898699
996.115	0.087702
996.249	0.0884903
996.383	0.0908553
996.517	0.0896728
996.651	0.0904612
996.785	0.090067
996.919	0.0896728
997.053	0.0890816
997.187	0.0875049
997.321	0.0912495
997.455	0.090067
997.589	0.0896728
997.722	0.0912495
997.856	0.0894758
997.99	0.0888845
998.124	0.0875049
998.258	0.0902641
998.392	0.0880962
998.526	0.0894758
998.66	0.0882933
998.794	0.0912495
998.928	0.0896728
999.062	0.0890816
999.196	0.0894758
999.33	0.0898699
999.464	0.087702
999.597	0.0904612
999.731	0.0867166
999.865	0.0904612
999.999	0.0878991
1000.13	0.0918408
1000.27	0.0884903
1000.4	0.0898699
1000.53	0.0882933
1000.67	0.0888845
1000.8	0.0865195
1000.94	0.0902641
1001.07	0.0908553
1001.2	0.0886874
1001.34	0.0904612
1001.47	0.0888845
1001.61	0.0906583
1001.74	0.0920378
1001.87	0.0880962
1002.01	0.087702
1002.14	0.0894758
1002.28	0.0888845
1002.41	0.090067
1002.54	0.0898699
1002.68	0.0863224
1002.81	0.0884903
1002.95	0.0892787
1003.08	0.0886874
1003.21	0.0880962
1003.35	0.087702
1003.48	0.0890816
1003.61	0.0896728
1003.75	0.0886874
1003.88	0.0892787
1004.02	0.0886874
1004.15	0.0920378
1004.28	0.087702
1004.42	0.0902641
1004.55	0.0920378
1004.69	0.0894758
1004.82	0.0873078
1004.95	0.0886874
1005.09	0.0880962
1005.22	0.0869137
1005.36	0.0875049
1005.49	0.0894758
1005.62	0.0886874
1005.76	0.0878991
1005.89	0.0888845
1006.03	0.0912495
1006.16	0.0922349
1006.29	0.0882933
1006.43	0.0878991
1006.56	0.087702
1006.69	0.0892787
1006.83	0.0888845
1006.96	0.0878991
1007.1	0.0886874
1007.23	0.0904612
1007.36	0.0886874
1007.5	0.0886874
1007.63	0.0912495
1007.77	0.0880962
1007.9	0.0894758
1008.03	0.0884903
1008.17	0.0892787
1008.3	0.090067
1008.44	0.0880962
1008.57	0.0894758
1008.7	0.0892787
1008.84	0.0886874
1008.97	0.0890816
1009.1	0.0892787
1009.24	0.0886874
1009.37	0.0875049
1009.51	0.0912495
1009.64	0.0855341
1009.77	0.0873078
1009.91	0.0902641
1010.04	0.0880962
1010.18	0.0896728
1010.31	0.0888845
1010.44	0.0873078
1010.58	0.0904612
1010.71	0.0878991
1010.85	0.0896728
1010.98	0.0875049
1011.11	0.0922349
1011.25	0.0914466
1011.38	0.0875049
1011.51	0.0902641
1011.65	0.0878991
1011.78	0.0861253
1011.92	0.0902641
1012.05	0.0890816
1012.18	0.0892787
1012.32	0.0875049
1012.45	0.0873078
1012.59	0.0898699
1012.72	0.0930233
1012.85	0.087702
1012.99	0.0882933
1013.12	0.0894758
1013.26	0.0896728
1013.39	0.0878991
1013.52	0.0886874
1013.66	0.0894758
1013.79	0.0873078
1013.92	0.0902641
1014.06	0.0910524
1014.19	0.0869137
1014.33	0.0912495
1014.46	0.0892787
1014.59	0.0894758
1014.73	0.0896728
1014.86	0.0871108
1015	0.0894758
1015.13	0.0906583
1015.26	0.0896728
1015.4	0.0878991
1015.53	0.0871108
1015.67	0.090067
1015.8	0.0890816
1015.93	0.0886874
1016.07	0.0882933
1016.2	0.0888845
1016.33	0.0896728
1016.47	0.0886874
1016.6	0.0906583
1016.74	0.0867166
1016.87	0.0884903
1017	0.0904612
1017.14	0.0910524
1017.27	0.0892787
1017.41	0.0888845
1017.54	0.0867166
1017.67	0.0867166
1017.81	0.087702
1017.94	0.0861253
1018.07	0.0896728
1018.21	0.0892787
1018.34	0.0888845
1018.48	0.0908553
1018.61	0.0894758
1018.74	0.0873078
1018.88	0.0867166
1019.01	0.0902641
1019.15	0.0865195
1019.28	0.0886874
1019.41	0.0863224
1019.55	0.0892787
1019.68	0.0882933
1019.82	0.0890816
1019.95	0.0896728
1020.08	0.0873078
1020.22	0.0880962
1020.35	0.0904612
1020.48	0.0863224
1020.62	0.0896728
1020.75	0.0859283
1020.89	0.0896728
1021.02	0.0886874
1021.15	0.0869137
1021.29	0.0882933
1021.42	0.0884903
1021.56	0.0882933
1021.69	0.0886874
1021.82	0.0920378
1021.96	0.0926291
1022.09	0.090067
1022.22	0.0894758
1022.36	0.0892787
1022.49	0.0878991
1022.63	0.0882933
1022.76	0.0884903
1022.89	0.0898699
1023.03	0.0894758
1023.16	0.0884903
1023.3	0.0890816
1023.43	0.0886874
1023.56	0.0892787
1023.7	0.0910524
1023.83	0.0904612
1023.96	0.0890816
1024.1	0.0878991
1024.23	0.0920378
1024.37	0.0890816
1024.5	0.0882933
1024.63	0.0916437
1024.77	0.090067
1024.9	0.0896728
1025.04	0.0908553
1025.17	0.0892787
1025.3	0.0880962
1025.44	0.0886874
1025.57	0.0882933
1025.7	0.0888845
1025.84	0.0898699
1025.97	0.0882933
1026.11	0.090067
1026.24	0.0869137
1026.37	0.087702
1026.51	0.0884903
1026.64	0.087702
1026.78	0.0908553
1026.91	0.0898699
1027.04	0.087702
1027.18	0.0882933
1027.31	0.0898699
1027.44	0.0890816
1027.58	0.0865195
1027.71	0.087702
1027.85	0.0908553
1027.98	0.0904612
1028.11	0.0910524
1028.25	0.090067
1028.38	0.0861253
1028.52	0.0896728
1028.65	0.0888845
1028.78	0.0882933
1028.92	0.0904612
1029.05	0.090067
1029.18	0.0873078
1029.32	0.0888845
1029.45	0.0873078
1029.59	0.0914466
1029.72	0.0914466
1029.85	0.0904612
1029.99	0.0886874
1030.12	0.0888845
1030.26	0.0880962
1030.39	0.0884903
1030.52	0.0886874
1030.66	0.0884903
1030.79	0.087702
1030.92	0.0894758
1031.06	0.0898699
1031.19	0.0880962
1031.33	0.0886874
1031.46	0.0884903
1031.59	0.0892787
1031.73	0.087702
1031.86	0.0920378
1031.99	0.0871108
1032.13	0.0906583
1032.26	0.0902641
1032.4	0.0884903
1032.53	0.0884903
1032.66	0.0888845
1032.8	0.0890816
1032.93	0.0882933
1033.07	0.0884903
1033.2	0.0898699
1033.33	0.0892787
1033.47	0.0922349
1033.6	0.0912495
1033.73	0.0884903
1033.87	0.0916437
1034	0.0865195
1034.14	0.0878991
1034.27	0.0888845
1034.4	0.0902641
1034.54	0.0888845
1034.67	0.0861253
1034.81	0.0896728
1034.94	0.0896728
1035.07	0.0863224
1035.21	0.0863224
1035.34	0.0898699
1035.47	0.0884903
1035.61	0.0878991
1035.74	0.0878991
1035.88	0.0871108
1036.01	0.0886874
1036.14	0.0896728
1036.28	0.0892787
1036.41	0.0875049
1036.54	0.0892787
1036.68	0.090067
1036.81	0.0873078
1036.95	0.0875049
1037.08	0.0865195
1037.21	0.0861253
1037.35	0.0890816
1037.48	0.0886874
1037.62	0.0884903
1037.75	0.0871108
1037.88	0.0875049
1038.02	0.0867166
1038.15	0.0902641
1038.28	0.0878991
1038.42	0.0886874
1038.55	0.0888845
1038.69	0.0928262
1038.82	0.0882933
1038.95	0.0863224
1039.09	0.0894758
1039.22	0.0910524
1039.35	0.087702
1039.49	0.0890816
1039.62	0.0873078
1039.76	0.0880962
1039.89	0.0888845
1040.02	0.0886874
1040.16	0.0880962
1040.29	0.0890816
1040.43	0.0896728
1040.56	0.0890816
1040.69	0.0886874
1040.83	0.0902641
1040.96	0.0878991
1041.09	0.0884903
1041.23	0.0882933
1041.36	0.0878991
1041.5	0.0871108
1041.63	0.0894758
1041.76	0.0882933
1041.9	0.0908553
1042.03	0.0908553
1042.16	0.0922349
1042.3	0.0892787
1042.43	0.0896728
1042.57	0.0898699
1042.7	0.0884903
1042.83	0.0886874
1042.97	0.0894758
1043.1	0.0910524
1043.23	0.0892787
1043.37	0.0880962
1043.5	0.0894758
1043.64	0.0878991
1043.77	0.0902641
1043.9	0.0884903
1044.04	0.0892787
1044.17	0.0898699
1044.31	0.0869137
1044.44	0.0902641
1044.57	0.0912495
1044.71	0.0873078
1044.84	0.090067
1044.97	0.0878991
1045.11	0.0888845
1045.24	0.0882933
1045.38	0.0888845
1045.51	0.0878991
1045.64	0.0888845
1045.78	0.0898699
1045.91	0.0920378
1046.04	0.0869137
1046.18	0.0884903
1046.31	0.0847458
1046.45	0.0882933
1046.58	0.090067
1046.71	0.0845487
1046.85	0.0894758
1046.98	0.0867166
1047.11	0.0902641
1047.25	0.0882933
1047.38	0.0880962
1047.52	0.0873078
1047.65	0.0914466
1047.78	0.0894758
1047.92	0.0906583
1048.05	0.0892787
1048.18	0.0898699
1048.32	0.0896728
1048.45	0.0904612
1048.59	0.0863224
1048.72	0.0908553
1048.85	0.0904612
1048.99	0.0890816
1049.12	0.0902641
1049.25	0.0886874
1049.39	0.0914466
1049.52	0.0888845
1049.66	0.0896728
1049.79	0.0896728
1049.92	0.0882933
1050.06	0.0867166
1050.19	0.0888845
1050.33	0.0902641
1050.46	0.0884903
1050.59	0.0902641
1050.73	0.0892787
1050.86	0.0871108
1050.99	0.090067
1051.13	0.0898699
1051.26	0.0910524
1051.4	0.0878991
1051.53	0.0873078
1051.66	0.0906583
1051.8	0.090067
1051.93	0.0896728
1052.06	0.0894758
1052.2	0.0888845
1052.33	0.090067
1052.47	0.0906583
1052.6	0.0894758
1052.73	0.0902641
1052.87	0.0886874
1053	0.0878991
1053.13	0.090067
1053.27	0.0902641
1053.4	0.0920378
1053.54	0.0906583
1053.67	0.0896728
1053.8	0.0906583
1053.94	0.0896728
1054.07	0.0910524
1054.2	0.0892787
1054.34	0.0892787
1054.47	0.0878991
1054.61	0.0886874
1054.74	0.0894758
1054.87	0.087702
1055.01	0.0916437
1055.14	0.0857312
1055.27	0.0886874
1055.41	0.0878991
1055.54	0.0878991
1055.68	0.0888845
1055.81	0.0888845
1055.94	0.0861253
1056.08	0.0906583
1056.21	0.0906583
1056.34	0.0890816
1056.48	0.087702
1056.61	0.0926291
1056.75	0.0884903
1056.88	0.0880962
1057.01	0.0892787
1057.15	0.0896728
1057.28	0.0869137
1057.41	0.0894758
1057.55	0.0890816
1057.68	0.0880962
1057.82	0.0920378
1057.95	0.087702
1058.08	0.0888845
1058.22	0.0873078
1058.35	0.0890816
1058.48	0.0894758
1058.62	0.0878991
1058.75	0.0890816
1058.89	0.0936145
1059.02	0.0912495
1059.15	0.0930233
1059.29	0.0906583
1059.42	0.0894758
1059.55	0.0867166
1059.69	0.090067
1059.82	0.0902641
1059.96	0.0886874
1060.09	0.0906583
1060.22	0.090067
1060.36	0.0906583
1060.49	0.0878991
1060.62	0.0902641
1060.76	0.0878991
1060.89	0.0888845
1061.03	0.0884903
1061.16	0.0892787
1061.29	0.0926291
1061.43	0.0920378
1061.56	0.087702
1061.69	0.0882933
1061.83	0.0918408
1061.96	0.0873078
1062.1	0.0878991
1062.23	0.0888845
1062.36	0.0884903
1062.5	0.0863224
1062.63	0.0910524
1062.76	0.0910524
1062.9	0.0878991
1063.03	0.0918408
1063.17	0.0892787
1063.3	0.0875049
1063.43	0.087702
1063.57	0.0888845
1063.7	0.0884903
1063.83	0.0890816
1063.97	0.0894758
1064.1	0.0910524
1064.23	0.0865195
1064.37	0.0878991
1064.5	0.0888845
1064.64	0.0908553
1064.77	0.0886874
1064.9	0.0896728
1065.04	0.0892787
1065.17	0.0886874
1065.3	0.0880962
1065.44	0.0869137
1065.57	0.0892787
1065.71	0.0888845
1065.84	0.0884903
1065.97	0.0869137
1066.11	0.090067
1066.24	0.0869137
1066.37	0.0892787
1066.51	0.0896728
1066.64	0.0869137
1066.78	0.0886874
1066.91	0.0878991
1067.04	0.0908553
1067.18	0.0896728
1067.31	0.0894758
1067.44	0.0878991
1067.58	0.0861253
1067.71	0.0888845
1067.85	0.0910524
1067.98	0.087702
1068.11	0.0884903
1068.25	0.0892787
1068.38	0.0890816
1068.51	0.0910524
1068.65	0.0855341
1068.78	0.0884903
1068.92	0.0896728
1069.05	0.0882933
1069.18	0.085337
1069.32	0.0888845
1069.45	0.090067
1069.58	0.090067
1069.72	0.0878991
1069.85	0.0894758
1069.98	0.0884903
1070.12	0.0906583
1070.25	0.087702
1070.39	0.0928262
1070.52	0.0869137
1070.65	0.0875049
1070.79	0.0902641
1070.92	0.0867166
1071.05	0.0886874
1071.19	0.0888845
1071.32	0.0896728
1071.46	0.0884903
1071.59	0.0908553
1071.72	0.0908553
1071.86	0.0871108
1071.99	0.0890816
1072.12	0.092432
1072.26	0.0884903
1072.39	0.087702
1072.53	0.0886874
1072.66	0.0878991
1072.79	0.0898699
1072.93	0.087702
1073.06	0.0908553
1073.19	0.0890816
1073.33	0.0859283
1073.46	0.0882933
1073.59	0.090067
1073.73	0.0865195
1073.86	0.0914466
1074	0.0878991
1074.13	0.090067
1074.26	0.0912495
1074.4	0.0869137
1074.53	0.0882933
1074.66	0.0869137
1074.8	0.0882933
1074.93	0.0890816
1075.07	0.0920378
1075.2	0.0880962
1075.33	0.090067
1075.47	0.0898699
1075.6	0.090067
1075.73	0.0898699
1075.87	0.0884903
1076	0.0869137
1076.14	0.0878991
1076.27	0.0892787
1076.4	0.0890816
1076.54	0.0873078
1076.67	0.0914466
1076.8	0.0869137
1076.94	0.087702
1077.07	0.0878991
1077.2	0.0882933
1077.34	0.090067
1077.47	0.0898699
1077.61	0.0904612
1077.74	0.0886874
1077.87	0.0904612
1078.01	0.0908553
1078.14	0.090067
1078.27	0.0875049
1078.41	0.0880962
1078.54	0.0871108
1078.68	0.0888845
1078.81	0.0884903
1078.94	0.0894758
1079.08	0.0902641
1079.21	0.0884903
1079.34	0.090067
1079.48	0.0880962
1079.61	0.0912495
1079.74	0.090067
1079.88	0.0865195
1080.01	0.0882933
1080.15	0.0875049
1080.28	0.0875049
1080.41	0.0910524
1080.55	0.0910524
1080.68	0.0894758
1080.81	0.0867166
1080.95	0.0890816
1081.08	0.0934174
1081.22	0.0894758
1081.35	0.090067
1081.48	0.0884903
1081.62	0.0894758
1081.75	0.0912495
1081.88	0.0880962
1082.02	0.0861253
1082.15	0.0902641
1082.28	0.0882933
1082.42	0.0857312
1082.55	0.0849428
1082.69	0.0894758
1082.82	0.0906583
1082.95	0.0873078
1083.09	0.0898699
1083.22	0.0912495
1083.35	0.0890816
1083.49	0.0898699
1083.62	0.0912495
1083.75	0.0890816
1083.89	0.0908553
1084.02	0.0904612
1084.16	0.0916437
1084.29	0.090067
1084.42	0.090067
1084.56	0.0873078
1084.69	0.0878991
1084.82	0.0851399
1084.96	0.0882933
1085.09	0.0878991
1085.23	0.0898699
1085.36	0.087702
1085.49	0.0888845
1085.63	0.0865195
1085.76	0.0888845
1085.89	0.0894758
1086.03	0.0934174
1086.16	0.0875049
1086.29	0.0894758
1086.43	0.0857312
1086.56	0.090067
1086.7	0.0884903
1086.83	0.0884903
1086.96	0.0863224
1087.1	0.0871108
1087.23	0.0906583
1087.36	0.0888845
1087.5	0.0892787
1087.63	0.0888845
1087.76	0.0886874
1087.9	0.0906583
1088.03	0.0878991
1088.17	0.0890816
1088.3	0.0896728
1088.43	0.0871108
1088.57	0.0892787
1088.7	0.0904612
1088.83	0.0861253
1088.97	0.082972
1089.1	0.0888845
1089.24	0.0890816
1089.37	0.0896728
1089.5	0.0890816
1089.64	0.0910524
1089.77	0.0894758
1089.9	0.0892787
1090.04	0.0882933
1090.17	0.0894758
1090.3	0.0892787
1090.44	0.0890816
1090.57	0.0884903
1090.71	0.0906583
1090.84	0.0878991
1090.97	0.0875049
1091.11	0.0912495
1091.24	0.0910524
1091.37	0.0878991
1091.51	0.0886874
1091.64	0.0890816
1091.77	0.0894758
1091.91	0.0888845
1092.04	0.0888845
1092.18	0.0873078
1092.31	0.0878991
1092.44	0.0906583
1092.58	0.0920378
1092.71	0.0884903
1092.84	0.0908553
1092.98	0.0904612
1093.11	0.0896728
1093.24	0.0890816
1093.38	0.0904612
1093.51	0.0908553
1093.65	0.0873078
1093.78	0.0886874
1093.91	0.0886874
1094.05	0.0910524
1094.18	0.0890816
1094.31	0.090067
1094.45	0.0892787
1094.58	0.0886874
1094.71	0.0894758
1094.85	0.0890816
1094.98	0.0894758
1095.12	0.0873078
1095.25	0.0886874
1095.38	0.0906583
1095.52	0.0886874
1095.65	0.0898699
1095.78	0.090067
1095.92	0.0894758
1096.05	0.0878991
1096.18	0.0892787
1096.32	0.0888845
1096.45	0.0896728
1096.59	0.090067
1096.72	0.0902641
1096.85	0.0894758
1096.99	0.0918408
1097.12	0.0865195
1097.25	0.0880962
1097.39	0.087702
1097.52	0.0906583
1097.65	0.0878991
1097.79	0.0898699
1097.92	0.0882933
1098.06	0.0892787
1098.19	0.0892787
1098.32	0.0871108
1098.46	0.0857312
1098.59	0.090067
1098.72	0.0906583
1098.86	0.0890816
1098.99	0.0857312
1099.12	0.092432
1099.26	0.0873078
1099.39	0.0902641
1099.53	0.0886874
1099.66	0.0892787
1099.79	0.0882933
1099.93	0.0926291
1100.06	0.0896728
1100.19	0.0873078
1100.33	0.0878991
1100.46	0.0884903
1100.59	0.0884903
1100.73	0.090067
1100.86	0.0914466
1100.99	0.0873078
1101.13	0.0869137
1101.26	0.0875049
1101.4	0.0867166
1101.53	0.0894758
1101.66	0.0888845
1101.8	0.0884903
1101.93	0.0912495
1102.06	0.0888845
1102.2	0.0894758
1102.33	0.0865195
1102.46	0.0884903
1102.6	0.087702
1102.73	0.0894758
1102.87	0.0922349
1103	0.0884903
1103.13	0.0882933
1103.27	0.0890816
1103.4	0.0910524
1103.53	0.0865195
1103.67	0.0886874
1103.8	0.0894758
1103.93	0.0910524
1104.07	0.0888845
1104.2	0.0892787
1104.34	0.0886874
1104.47	0.0898699
1104.6	0.0886874
1104.74	0.0873078
1104.87	0.0894758
1105	0.0888845
1105.14	0.0890816
1105.27	0.0880962
1105.4	0.0867166
1105.54	0.0904612
1105.67	0.0892787
1105.8	0.0942058
1105.94	0.0896728
1106.07	0.0890816
1106.21	0.0892787
1106.34	0.0918408
1106.47	0.0886874
1106.61	0.0894758
1106.74	0.0886874
1106.87	0.0910524
1107.01	0.0855341
1107.14	0.0914466
1107.27	0.0894758
1107.41	0.0926291
1107.54	0.0882933

