Source: Spectrum Viewer

Chart: Pulse Spectrum

Series: 
Wavelength (nm)	S (a.u.)
617.638	0.054407
617.773	0.0535606
617.908	0.053077
618.043	0.054407
618.178	0.054407
618.313	0.0548906
618.448	0.0559787
618.583	0.0533188
618.718	0.054407
618.853	0.0554951
618.988	0.0550115
619.123	0.0534397
619.258	0.0552533
619.394	0.054407
619.529	0.0541652
619.664	0.0554951
619.799	0.0531979
619.934	0.0551324
620.069	0.054407
620.204	0.0528352
620.339	0.054407
620.474	0.0535606
620.609	0.055616
620.744	0.0535606
620.879	0.0536815
621.014	0.0550115
621.149	0.0540443
621.284	0.0531979
621.419	0.0536815
621.554	0.0554951
621.689	0.0541652
621.825	0.0538024
621.96	0.0551324
622.095	0.0554951
622.23	0.0538024
622.365	0.0541652
622.5	0.0536815
622.635	0.0548906
622.77	0.0551324
622.905	0.0547697
623.04	0.0541652
623.175	0.054407
623.31	0.0546488
623.445	0.0540443
623.58	0.0542861
623.715	0.0534397
623.85	0.054407
623.985	0.0540443
624.12	0.054407
624.255	0.0525934
624.39	0.055616
624.525	0.0550115
624.661	0.055616
624.796	0.0535606
624.931	0.0551324
625.066	0.0545279
625.201	0.0552533
625.336	0.0542861
625.471	0.0558578
625.606	0.0535606
625.741	0.0534397
625.876	0.0550115
626.011	0.0554951
626.146	0.0545279
626.281	0.0551324
626.416	0.0539233
626.551	0.0538024
626.686	0.053077
626.821	0.0538024
626.956	0.054407
627.091	0.0552533
627.226	0.0550115
627.361	0.0550115
627.496	0.0547697
627.631	0.0560996
627.766	0.0550115
627.901	0.0554951
628.036	0.0552533
628.171	0.0528352
628.307	0.054407
628.442	0.0558578
628.577	0.0541652
628.712	0.0545279
628.847	0.0554951
628.982	0.0552533
629.117	0.0527143
629.252	0.0554951
629.387	0.0525934
629.522	0.0538024
629.657	0.055616
629.792	0.0534397
629.927	0.0553742
630.062	0.0548906
630.197	0.054407
630.332	0.0553742
630.467	0.0547697
630.602	0.0546488
630.737	0.0545279
630.872	0.0559787
631.007	0.0541652
631.142	0.0553742
631.277	0.0531979
631.412	0.0547697
631.547	0.0542861
631.682	0.0525934
631.817	0.054407
631.952	0.0531979
632.087	0.0533188
632.222	0.0576714
632.357	0.0558578
632.492	0.0533188
632.627	0.0564623
632.762	0.0540443
632.897	0.0554951
633.032	0.0527143
633.167	0.0546488
633.302	0.054407
633.437	0.0541652
633.572	0.0547697
633.707	0.0548906
633.842	0.0545279
633.978	0.054407
634.113	0.0535606
634.248	0.053077
634.383	0.0541652
634.518	0.0539233
634.653	0.0548906
634.788	0.0536815
634.923	0.0554951
635.058	0.0541652
635.193	0.0554951
635.328	0.0542861
635.463	0.0547697
635.598	0.0548906
635.733	0.0547697
635.868	0.0542861
636.003	0.0545279
636.138	0.0558578
636.273	0.0545279
636.408	0.0542861
636.543	0.0528352
636.678	0.0539233
636.813	0.0554951
636.948	0.0535606
637.083	0.0559787
637.218	0.0548906
637.353	0.0539233
637.488	0.0533188
637.623	0.0541652
637.758	0.0548906
637.893	0.0547697
638.028	0.0542861
638.163	0.0534397
638.298	0.0560996
638.433	0.0539233
638.568	0.0560996
638.703	0.0541652
638.838	0.0536815
638.973	0.0547697
639.108	0.0558578
639.243	0.0552533
639.378	0.0564623
639.513	0.0539233
639.648	0.0548906
639.783	0.0552533
639.918	0.0540443
640.053	0.0553742
640.188	0.0539233
640.323	0.0548906
640.458	0.0538024
640.593	0.0565832
640.728	0.0551324
640.863	0.0545279
640.998	0.0563414
641.133	0.0548906
641.268	0.0560996
641.403	0.0546488
641.538	0.0539233
641.673	0.0536815
641.808	0.0538024
641.943	0.0554951
642.078	0.0538024
642.213	0.0546488
642.348	0.0542861
642.483	0.0533188
642.618	0.0536815
642.753	0.0550115
642.888	0.0547697
643.023	0.0542861
643.158	0.0547697
643.293	0.0558578
643.428	0.0554951
643.563	0.0559787
643.698	0.054407
643.833	0.0547697
643.968	0.0564623
644.103	0.0539233
644.237	0.0552533
644.372	0.055616
644.507	0.0570669
644.642	0.0551324
644.777	0.0538024
644.912	0.0553742
645.047	0.0525934
645.182	0.0533188
645.317	0.0548906
645.452	0.0551324
645.587	0.0546488
645.722	0.0548906
645.857	0.0539233
645.992	0.054407
646.127	0.0550115
646.262	0.0568251
646.397	0.0541652
646.532	0.0546488
646.667	0.0552533
646.802	0.0538024
646.937	0.0554951
647.072	0.0545279
647.207	0.0548906
647.342	0.0553742
647.477	0.0531979
647.612	0.0536815
647.747	0.0547697
647.882	0.0562205
648.017	0.0541652
648.152	0.0560996
648.287	0.0541652
648.422	0.0551324
648.557	0.0559787
648.692	0.0557369
648.827	0.0550115
648.962	0.0558578
649.097	0.0538024
649.232	0.0540443
649.367	0.0539233
649.502	0.054407
649.637	0.055616
649.772	0.0550115
649.906	0.0557369
650.041	0.0571878
650.176	0.0542861
650.311	0.0524725
650.446	0.0545279
650.581	0.0550115
650.716	0.0547697
650.851	0.0542861
650.986	0.0529561
651.121	0.0545279
651.256	0.0542861
651.391	0.0541652
651.526	0.0548906
651.661	0.0550115
651.796	0.053077
651.931	0.0536815
652.066	0.0559787
652.201	0.0539233
652.336	0.0540443
652.471	0.0536815
652.606	0.054407
652.741	0.0552533
652.876	0.0542861
653.011	0.0550115
653.146	0.0546488
653.281	0.0548906
653.415	0.0545279
653.55	0.0558578
653.685	0.0562205
653.82	0.0565832
653.955	0.0534397
654.09	0.0554951
654.225	0.0545279
654.36	0.0545279
654.495	0.054407
654.63	0.0545279
654.765	0.0548906
654.9	0.0570669
655.035	0.0541652
655.17	0.0552533
655.305	0.0546488
655.44	0.0534397
655.575	0.0531979
655.71	0.0547697
655.845	0.0545279
655.98	0.0546488
656.115	0.0542861
656.25	0.0552533
656.384	0.0540443
656.519	0.0539233
656.654	0.0550115
656.789	0.0535606
656.924	0.0540443
657.059	0.0548906
657.194	0.0542861
657.329	0.0539233
657.464	0.0565832
657.599	0.0536815
657.734	0.0539233
657.869	0.0547697
658.004	0.0552533
658.139	0.054407
658.274	0.0545279
658.409	0.0554951
658.544	0.0541652
658.679	0.0550115
658.813	0.0546488
658.948	0.0548906
659.083	0.0557369
659.218	0.0535606
659.353	0.0553742
659.488	0.0553742
659.623	0.054407
659.758	0.0538024
659.893	0.0528352
660.028	0.0539233
660.163	0.0548906
660.298	0.0563414
660.433	0.0542861
660.568	0.0542861
660.703	0.0550115
660.838	0.0534397
660.972	0.0550115
661.107	0.0550115
661.242	0.0546488
661.377	0.0552533
661.512	0.053077
661.647	0.0527143
661.782	0.0539233
661.917	0.0539233
662.052	0.0560996
662.187	0.0562205
662.322	0.0565832
662.457	0.0558578
662.592	0.0545279
662.727	0.0548906
662.862	0.0559787
662.996	0.0547697
663.131	0.0558578
663.266	0.0548906
663.401	0.0550115
663.536	0.0536815
663.671	0.0533188
663.806	0.0533188
663.941	0.0541652
664.076	0.0548906
664.211	0.0558578
664.346	0.0539233
664.481	0.0539233
664.616	0.0546488
664.75	0.0547697
664.885	0.0553742
665.02	0.0546488
665.155	0.0540443
665.29	0.0540443
665.425	0.0539233
665.56	0.0550115
665.695	0.0529561
665.83	0.0550115
665.965	0.0540443
666.1	0.0548906
666.235	0.0528352
666.37	0.0525934
666.504	0.0554951
666.639	0.054407
666.774	0.0545279
666.909	0.0545279
667.044	0.0557369
667.179	0.0533188
667.314	0.0554951
667.449	0.0560996
667.584	0.0546488
667.719	0.0542861
667.854	0.0541652
667.989	0.056946
668.123	0.0557369
668.258	0.0541652
668.393	0.0546488
668.528	0.0545279
668.663	0.0551324
668.798	0.0553742
668.933	0.0560996
669.068	0.0545279
669.203	0.0558578
669.338	0.053077
669.473	0.0548906
669.607	0.054407
669.742	0.0547697
669.877	0.0551324
670.012	0.0536815
670.147	0.0552533
670.282	0.0539233
670.417	0.0512635
670.552	0.0547697
670.687	0.0554951
670.822	0.0541652
670.957	0.0550115
671.091	0.0545279
671.226	0.0531979
671.361	0.0547697
671.496	0.054407
671.631	0.0558578
671.766	0.054407
671.901	0.0550115
672.036	0.0545279
672.171	0.056946
672.306	0.0557369
672.44	0.0531979
672.575	0.0539233
672.71	0.0540443
672.845	0.0553742
672.98	0.0550115
673.115	0.0554951
673.25	0.053077
673.385	0.0553742
673.52	0.0551324
673.655	0.0524725
673.789	0.0552533
673.924	0.0536815
674.059	0.0554951
674.194	0.0523516
674.329	0.0557369
674.464	0.0546488
674.599	0.0542861
674.734	0.0538024
674.869	0.0562205
675.003	0.0542861
675.138	0.0552533
675.273	0.0541652
675.408	0.0545279
675.543	0.0546488
675.678	0.0525934
675.813	0.0552533
675.948	0.0563414
676.083	0.0559787
676.217	0.0541652
676.352	0.0527143
676.487	0.0548906
676.622	0.0562205
676.757	0.0531979
676.892	0.0548906
677.027	0.0541652
677.162	0.0541652
677.297	0.0552533
677.431	0.0539233
677.566	0.0562205
677.701	0.0546488
677.836	0.0536815
677.971	0.0542861
678.106	0.0545279
678.241	0.0534397
678.376	0.0542861
678.511	0.054407
678.645	0.0540443
678.78	0.0547697
678.915	0.0545279
679.05	0.0540443
679.185	0.054407
679.32	0.0551324
679.455	0.0546488
679.59	0.0525934
679.724	0.0547697
679.859	0.0538024
679.994	0.0552533
680.129	0.0546488
680.264	0.0541652
680.399	0.0535606
680.534	0.0546488
680.669	0.0573087
680.803	0.0552533
680.938	0.0550115
681.073	0.0554951
681.208	0.0546488
681.343	0.0547697
681.478	0.0539233
681.613	0.0540443
681.748	0.0563414
681.882	0.0546488
682.017	0.0533188
682.152	0.0559787
682.287	0.0536815
682.422	0.055616
682.557	0.0551324
682.692	0.0519889
682.827	0.0546488
682.961	0.0540443
683.096	0.054407
683.231	0.0564623
683.366	0.0524725
683.501	0.0557369
683.636	0.0535606
683.771	0.0548906
683.906	0.0539233
684.04	0.0553742
684.175	0.0531979
684.31	0.0542861
684.445	0.0540443
684.58	0.0539233
684.715	0.0533188
684.85	0.0570669
684.984	0.0548906
685.119	0.0535606
685.254	0.0557369
685.389	0.0554951
685.524	0.0534397
685.659	0.0553742
685.794	0.0554951
685.928	0.0552533
686.063	0.0542861
686.198	0.0542861
686.333	0.054407
686.468	0.0542861
686.603	0.0550115
686.738	0.0554951
686.872	0.0551324
687.007	0.0540443
687.142	0.0536815
687.277	0.0546488
687.412	0.0542861
687.547	0.0550115
687.682	0.054407
687.816	0.0534397
687.951	0.0531979
688.086	0.0547697
688.221	0.0535606
688.356	0.0551324
688.491	0.0568251
688.626	0.0535606
688.76	0.0550115
688.895	0.0538024
689.03	0.0539233
689.165	0.0539233
689.3	0.0548906
689.435	0.0535606
689.57	0.0538024
689.704	0.0541652
689.839	0.055616
689.974	0.054407
690.109	0.0553742
690.244	0.0542861
690.379	0.0546488
690.513	0.0522307
690.648	0.0546488
690.783	0.0550115
690.918	0.0551324
691.053	0.0553742
691.188	0.0547697
691.323	0.0557369
691.457	0.0550115
691.592	0.0553742
691.727	0.0531979
691.862	0.0550115
691.997	0.0547697
692.132	0.0552533
692.266	0.0548906
692.401	0.0547697
692.536	0.0535606
692.671	0.0562205
692.806	0.0525934
692.941	0.0535606
693.075	0.0550115
693.21	0.0539233
693.345	0.0542861
693.48	0.054407
693.615	0.0542861
693.75	0.0531979
693.885	0.0554951
694.019	0.0558578
694.154	0.0553742
694.289	0.0550115
694.424	0.0538024
694.559	0.0539233
694.694	0.054407
694.828	0.0545279
694.963	0.0535606
695.098	0.0522307
695.233	0.0551324
695.368	0.0545279
695.503	0.0529561
695.637	0.0562205
695.772	0.0547697
695.907	0.0539233
696.042	0.0558578
696.177	0.053077
696.312	0.054407
696.446	0.0536815
696.581	0.0540443
696.716	0.0538024
696.851	0.0542861
696.986	0.0546488
697.12	0.0539233
697.255	0.0534397
697.39	0.0531979
697.525	0.054407
697.66	0.0538024
697.795	0.0552533
697.929	0.0539233
698.064	0.0550115
698.199	0.0567041
698.334	0.0534397
698.469	0.0528352
698.604	0.0567041
698.738	0.0531979
698.873	0.0548906
699.008	0.0540443
699.143	0.0540443
699.278	0.0552533
699.412	0.0551324
699.547	0.0548906
699.682	0.0547697
699.817	0.0553742
699.952	0.0552533
700.087	0.0552533
700.221	0.0559787
700.356	0.0546488
700.491	0.0535606
700.626	0.0548906
700.761	0.0540443
700.895	0.054407
701.03	0.0528352
701.165	0.0539233
701.3	0.0557369
701.435	0.0567041
701.57	0.0534397
701.704	0.0542861
701.839	0.0529561
701.974	0.0553742
702.109	0.0541652
702.244	0.0558578
702.378	0.0567041
702.513	0.0546488
702.648	0.0560996
702.783	0.0525934
702.918	0.0541652
703.052	0.0553742
703.187	0.0558578
703.322	0.0545279
703.457	0.0541652
703.592	0.0545279
703.727	0.0565832
703.861	0.0554951
703.996	0.055616
704.131	0.0552533
704.266	0.0547697
704.401	0.0550115
704.535	0.0542861
704.67	0.0542861
704.805	0.0535606
704.94	0.0553742
705.075	0.0546488
705.209	0.0551324
705.344	0.0535606
705.479	0.0552533
705.614	0.0557369
705.749	0.054407
705.883	0.0546488
706.018	0.0546488
706.153	0.0550115
706.288	0.0553742
706.423	0.0547697
706.557	0.0542861
706.692	0.0536815
706.827	0.0540443
706.962	0.0548906
707.097	0.0546488
707.231	0.054407
707.366	0.0557369
707.501	0.0553742
707.636	0.0562205
707.771	0.0540443
707.905	0.0529561
708.04	0.0540443
708.175	0.0547697
708.31	0.0548906
708.445	0.0540443
708.579	0.0553742
708.714	0.0536815
708.849	0.0547697
708.984	0.0539233
709.118	0.0542861
709.253	0.0546488
709.388	0.0551324
709.523	0.0541652
709.658	0.0548906
709.792	0.0542861
709.927	0.054407
710.062	0.0538024
710.197	0.0546488
710.332	0.0550115
710.466	0.0560996
710.601	0.0522307
710.736	0.0545279
710.871	0.054407
711.006	0.0541652
711.14	0.0539233
711.275	0.0541652
711.41	0.055616
711.545	0.0534397
711.679	0.0534397
711.814	0.0538024
711.949	0.0550115
712.084	0.0547697
712.219	0.0552533
712.353	0.0553742
712.488	0.0539233
712.623	0.0538024
712.758	0.0550115
712.892	0.0552533
713.027	0.0539233
713.162	0.0542861
713.297	0.0538024
713.432	0.0542861
713.566	0.0552533
713.701	0.0542861
713.836	0.0564623
713.971	0.0538024
714.105	0.0539233
714.24	0.054407
714.375	0.0539233
714.51	0.0545279
714.645	0.0548906
714.779	0.0546488
714.914	0.0535606
715.049	0.0548906
715.184	0.0571878
715.318	0.0536815
715.453	0.0547697
715.588	0.0564623
715.723	0.0546488
715.858	0.0548906
715.992	0.0541652
716.127	0.0531979
716.262	0.0540443
716.397	0.0531979
716.531	0.0551324
716.666	0.0536815
716.801	0.0545279
716.936	0.0552533
717.07	0.0547697
717.205	0.0545279
717.34	0.0547697
717.475	0.0552533
717.61	0.0563414
717.744	0.0531979
717.879	0.0550115
718.014	0.0546488
718.149	0.0540443
718.283	0.0539233
718.418	0.0551324
718.553	0.0562205
718.688	0.0557369
718.822	0.054407
718.957	0.0550115
719.092	0.0547697
719.227	0.0548906
719.361	0.0547697
719.496	0.0554951
719.631	0.0557369
719.766	0.0533188
719.9	0.0540443
720.035	0.0541652
720.17	0.0554951
720.305	0.0540443
720.44	0.0528352
720.574	0.0552533
720.709	0.0548906
720.844	0.0551324
720.979	0.0550115
721.113	0.0545279
721.248	0.0548906
721.383	0.0548906
721.518	0.0563414
721.652	0.0542861
721.787	0.0535606
721.922	0.0548906
722.057	0.054407
722.191	0.0550115
722.326	0.0541652
722.461	0.0548906
722.596	0.0542861
722.73	0.054407
722.865	0.0548906
723	0.0536815
723.135	0.0542861
723.269	0.0534397
723.404	0.0552533
723.539	0.055616
723.674	0.0545279
723.808	0.0563414
723.943	0.0551324
724.078	0.0533188
724.213	0.0541652
724.347	0.0553742
724.482	0.0564623
724.617	0.0535606
724.752	0.0534397
724.886	0.0533188
725.021	0.0557369
725.156	0.0540443
725.291	0.0546488
725.425	0.0539233
725.56	0.0547697
725.695	0.0545279
725.829	0.0538024
725.964	0.0533188
726.099	0.055616
726.234	0.0551324
726.368	0.0542861
726.503	0.0546488
726.638	0.0548906
726.773	0.0547697
726.907	0.0531979
727.042	0.0535606
727.177	0.0541652
727.312	0.0548906
727.446	0.0550115
727.581	0.054407
727.716	0.0531979
727.851	0.0545279
727.985	0.0548906
728.12	0.0536815
728.255	0.0551324
728.389	0.0542861
728.524	0.0553742
728.659	0.0540443
728.794	0.0551324
728.928	0.0551324
729.063	0.0538024
729.198	0.0548906
729.333	0.0533188
729.467	0.0540443
729.602	0.0547697
729.737	0.0545279
729.872	0.0547697
730.006	0.0539233
730.141	0.0542861
730.276	0.0546488
730.41	0.0541652
730.545	0.0546488
730.68	0.0541652
730.815	0.054407
730.949	0.0547697
731.084	0.0536815
731.219	0.0559787
731.354	0.0553742
731.488	0.0546488
731.623	0.0558578
731.758	0.0564623
731.892	0.0542861
732.027	0.0541652
732.162	0.0539233
732.297	0.0541652
732.431	0.0545279
732.566	0.054407
732.701	0.0541652
732.835	0.0547697
732.97	0.053077
733.105	0.0545279
733.24	0.0542861
733.374	0.0554951
733.509	0.0540443
733.644	0.0552533
733.779	0.0547697
733.913	0.0546488
734.048	0.0550115
734.183	0.0547697
734.317	0.0534397
734.452	0.0545279
734.587	0.0554951
734.722	0.0538024
734.856	0.0536815
734.991	0.0551324
735.126	0.0545279
735.26	0.0534397
735.395	0.054407
735.53	0.0546488
735.665	0.0564623
735.799	0.0553742
735.934	0.0558578
736.069	0.0541652
736.203	0.054407
736.338	0.0559787
736.473	0.0551324
736.607	0.0547697
736.742	0.0548906
736.877	0.054407
737.012	0.054407
737.146	0.0536815
737.281	0.0550115
737.416	0.055616
737.55	0.0553742
737.685	0.0533188
737.82	0.0539233
737.955	0.0545279
738.089	0.0546488
738.224	0.0540443
738.359	0.0545279
738.493	0.0542861
738.628	0.0545279
738.763	0.0550115
738.897	0.0548906
739.032	0.0562205
739.167	0.0538024
739.302	0.0540443
739.436	0.0524725
739.571	0.0531979
739.706	0.0534397
739.84	0.0541652
739.975	0.0563414
740.11	0.0535606
740.244	0.0525934
740.379	0.0542861
740.514	0.0550115
740.649	0.0548906
740.783	0.0525934
740.918	0.0552533
741.053	0.0542861
741.187	0.0541652
741.322	0.0538024
741.457	0.0558578
741.591	0.0547697
741.726	0.0563414
741.861	0.054407
741.996	0.0545279
742.13	0.0557369
742.265	0.0547697
742.4	0.0541652
742.534	0.0539233
742.669	0.0554951
742.804	0.0541652
742.938	0.0541652
743.073	0.0538024
743.208	0.0548906
743.342	0.0559787
743.477	0.0536815
743.612	0.0545279
743.747	0.0547697
743.881	0.0553742
744.016	0.0560996
744.151	0.0552533
744.285	0.0552533
744.42	0.0564623
744.555	0.0542861
744.689	0.055616
744.824	0.0550115
744.959	0.0546488
745.093	0.0538024
745.228	0.0539233
745.363	0.0541652
745.497	0.0551324
745.632	0.0558578
745.767	0.0559787
745.901	0.0554951
746.036	0.0534397
746.171	0.0548906
746.305	0.0557369
746.44	0.0535606
746.575	0.0538024
746.71	0.0545279
746.844	0.0545279
746.979	0.0539233
747.114	0.0539233
747.248	0.0545279
747.383	0.0540443
747.518	0.0529561
747.652	0.0547697
747.787	0.055616
747.922	0.0563414
748.056	0.0550115
748.191	0.0541652
748.326	0.0547697
748.46	0.0546488
748.595	0.0545279
748.73	0.0553742
748.864	0.0551324
748.999	0.0551324
749.134	0.0541652
749.268	0.0554951
749.403	0.0539233
749.538	0.0552533
749.672	0.0539233
749.807	0.055616
749.942	0.0533188
750.076	0.0546488
750.211	0.0539233
750.346	0.0536815
750.48	0.0542861
750.615	0.0557369
750.75	0.0553742
750.884	0.0558578
751.019	0.0533188
751.154	0.0557369
751.288	0.0531979
751.423	0.0534397
751.558	0.0548906
751.692	0.0529561
751.827	0.0536815
751.962	0.053077
752.096	0.053077
752.231	0.056946
752.366	0.053077
752.5	0.0540443
752.635	0.0541652
752.77	0.0550115
752.904	0.0550115
753.039	0.0535606
753.174	0.0551324
753.308	0.0541652
753.443	0.053077
753.578	0.0547697
753.712	0.054407
753.847	0.0552533
753.982	0.0538024
754.116	0.0546488
754.251	0.0535606
754.386	0.0557369
754.52	0.0546488
754.655	0.0540443
754.79	0.0551324
754.924	0.054407
755.059	0.0522307
755.194	0.0541652
755.328	0.0550115
755.463	0.0529561
755.597	0.0564623
755.732	0.0557369
755.867	0.0542861
756.001	0.0535606
756.136	0.0531979
756.271	0.0550115
756.405	0.0535606
756.54	0.0559787
756.675	0.0553742
756.809	0.0546488
756.944	0.0542861
757.079	0.0551324
757.213	0.0541652
757.348	0.054407
757.483	0.0538024
757.617	0.0563414
757.752	0.0550115
757.887	0.0534397
758.021	0.0540443
758.156	0.0563414
758.29	0.0539233
758.425	0.0559787
758.56	0.0546488
758.694	0.0554951
758.829	0.0548906
758.964	0.0557369
759.098	0.0553742
759.233	0.0545279
759.368	0.0538024
759.502	0.0539233
759.637	0.0551324
759.772	0.0558578
759.906	0.0557369
760.041	0.0562205
760.175	0.0558578
760.31	0.0531979
760.445	0.0540443
760.579	0.054407
760.714	0.0550115
760.849	0.0538024
760.983	0.0548906
761.118	0.0553742
761.253	0.0559787
761.387	0.0557369
761.522	0.0531979
761.656	0.0545279
761.791	0.0552533
761.926	0.054407
762.06	0.0540443
762.195	0.0552533
762.33	0.0534397
762.464	0.0535606
762.599	0.0547697
762.733	0.0553742
762.868	0.0550115
763.003	0.0539233
763.137	0.0548906
763.272	0.0553742
763.407	0.0536815
763.541	0.0540443
763.676	0.0550115
763.811	0.0535606
763.945	0.053077
764.08	0.055616
764.214	0.0538024
764.349	0.0529561
764.484	0.0551324
764.618	0.0582759
764.753	0.0527143
764.888	0.0531979
765.022	0.0542861
765.157	0.0547697
765.291	0.0539233
765.426	0.0538024
765.561	0.0562205
765.695	0.0541652
765.83	0.055616
765.965	0.0542861
766.099	0.0534397
766.234	0.0534397
766.368	0.0562205
766.503	0.0538024
766.638	0.0538024
766.772	0.0527143
766.907	0.0563414
767.041	0.0554951
767.176	0.0547697
767.311	0.0540443
767.445	0.0538024
767.58	0.0552533
767.715	0.0541652
767.849	0.0553742
767.984	0.053077
768.118	0.0547697
768.253	0.0536815
768.388	0.0554951
768.522	0.0507798
768.657	0.0550115
768.791	0.0553742
768.926	0.0548906
769.061	0.0548906
769.195	0.0567041
769.33	0.0548906
769.465	0.0551324
769.599	0.0535606
769.734	0.0534397
769.868	0.0547697
770.003	0.0557369
770.138	0.0551324
770.272	0.0542861
770.407	0.0551324
770.541	0.0535606
770.676	0.055616
770.811	0.0552533
770.945	0.0540443
771.08	0.0536815
771.214	0.0562205
771.349	0.0541652
771.484	0.054407
771.618	0.0567041
771.753	0.0553742
771.887	0.0546488
772.022	0.0545279
772.157	0.0562205
772.291	0.0551324
772.426	0.0546488
772.56	0.0548906
772.695	0.0538024
772.83	0.0551324
772.964	0.054407
773.099	0.0542861
773.233	0.0551324
773.368	0.0542861
773.503	0.0550115
773.637	0.0535606
773.772	0.0531979
773.906	0.0528352
774.041	0.0533188
774.176	0.0525934
774.31	0.0552533
774.445	0.0552533
774.579	0.0542861
774.714	0.0550115
774.849	0.0541652
774.983	0.0551324
775.118	0.0576714
775.252	0.0570669
775.387	0.0557369
775.522	0.0536815
775.656	0.0547697
775.791	0.0539233
775.925	0.0557369
776.06	0.0552533
776.195	0.055616
776.329	0.0552533
776.464	0.0536815
776.598	0.0546488
776.733	0.054407
776.868	0.0545279
777.002	0.0534397
777.137	0.0545279
777.271	0.0551324
777.406	0.0548906
777.54	0.0564623
777.675	0.0524725
777.81	0.0542861
777.944	0.0550115
778.079	0.0535606
778.213	0.0521098
778.348	0.0558578
778.483	0.054407
778.617	0.0548906
778.752	0.055616
778.886	0.0541652
779.021	0.0548906
779.155	0.0545279
779.29	0.0535606
779.425	0.0558578
779.559	0.0541652
779.694	0.0562205
779.828	0.0536815
779.963	0.0529561
780.098	0.0550115
780.232	0.0552533
780.367	0.0554951
780.501	0.055616
780.636	0.0539233
780.77	0.0547697
780.905	0.0550115
781.04	0.0548906
781.174	0.0545279
781.309	0.0553742
781.443	0.0542861
781.578	0.0562205
781.712	0.0531979
781.847	0.0554951
781.982	0.0541652
782.116	0.0545279
782.251	0.0550115
782.385	0.054407
782.52	0.0551324
782.654	0.0536815
782.789	0.0550115
782.924	0.0568251
783.058	0.054407
783.193	0.053077
783.327	0.0552533
783.462	0.0552533
783.596	0.0521098
783.731	0.0564623
783.866	0.055616
784	0.0542861
784.135	0.0559787
784.269	0.0527143
784.404	0.055616
784.538	0.0548906
784.673	0.0539233
784.808	0.0545279
784.942	0.0548906
785.077	0.0528352
785.211	0.053077
785.346	0.0516262
785.48	0.0545279
785.615	0.0531979
785.75	0.0545279
785.884	0.0542861
786.019	0.0533188
786.153	0.0552533
786.288	0.0536815
786.422	0.0551324
786.557	0.054407
786.691	0.0558578
786.826	0.0546488
786.961	0.0546488
787.095	0.0553742
787.23	0.054407
787.364	0.0536815
787.499	0.0548906
787.633	0.0551324
787.768	0.0542861
787.902	0.0539233
788.037	0.0551324
788.172	0.0554951
788.306	0.055616
788.441	0.0551324
788.575	0.0562205
788.71	0.0548906
788.844	0.0542861
788.979	0.0564623
789.113	0.0550115
789.248	0.0541652
789.383	0.0546488
789.517	0.0528352
789.652	0.0536815
789.786	0.0551324
789.921	0.0550115
790.055	0.0546488
790.19	0.0547697
790.324	0.0541652
790.459	0.0557369
790.594	0.054407
790.728	0.0528352
790.863	0.0553742
790.997	0.0535606
791.132	0.0565832
791.266	0.0563414
791.401	0.0539233
791.535	0.0546488
791.67	0.0540443
791.804	0.0554951
791.939	0.0559787
792.074	0.0550115
792.208	0.0557369
792.343	0.0545279
792.477	0.0540443
792.612	0.0557369
792.746	0.0552533
792.881	0.0563414
793.015	0.0542861
793.15	0.0525934
793.284	0.0541652
793.419	0.055616
793.553	0.0551324
793.688	0.0563414
793.823	0.0545279
793.957	0.0533188
794.092	0.0542861
794.226	0.0536815
794.361	0.0548906
794.495	0.0542861
794.63	0.0548906
794.764	0.0538024
794.899	0.0539233
795.033	0.0538024
795.168	0.0541652
795.302	0.0535606
795.437	0.0560996
795.572	0.0558578
795.706	0.0531979
795.841	0.0545279
795.975	0.0553742
796.11	0.0551324
796.244	0.0553742
796.379	0.0559787
796.513	0.0552533
796.648	0.0542861
796.782	0.0564623
796.917	0.0545279
797.051	0.054407
797.186	0.0540443
797.32	0.0540443
797.455	0.0560996
797.589	0.0551324
797.724	0.0546488
797.859	0.054407
797.993	0.0553742
798.128	0.0540443
798.262	0.0548906
798.397	0.0548906
798.531	0.0557369
798.666	0.0539233
798.8	0.0560996
798.935	0.0552533
799.069	0.0548906
799.204	0.0563414
799.338	0.0531979
799.473	0.0554951
799.607	0.055616
799.742	0.0538024
799.876	0.0559787
800.011	0.0558578
800.145	0.0553742
800.28	0.0551324
800.414	0.0560996
800.549	0.0551324
800.683	0.0559787
800.818	0.0547697
800.953	0.0554951
801.087	0.0546488
801.222	0.055616
801.356	0.0554951
801.491	0.0558578
801.625	0.0557369
801.76	0.0574296
801.894	0.0550115
802.029	0.0559787
802.163	0.0559787
802.298	0.0547697
802.432	0.0562205
802.567	0.0554951
802.701	0.0568251
802.836	0.055616
802.97	0.0541652
803.105	0.0574296
803.239	0.0554951
803.374	0.0568251
803.508	0.0560996
803.643	0.0562205
803.777	0.055616
803.912	0.0552533
804.046	0.0545279
804.181	0.054407
804.315	0.0557369
804.45	0.0548906
804.584	0.0560996
804.719	0.0553742
804.853	0.0554951
804.988	0.0567041
805.122	0.055616
805.257	0.0568251
805.391	0.0551324
805.526	0.056946
805.66	0.0558578
805.795	0.0565832
805.929	0.0559787
806.064	0.0568251
806.198	0.0560996
806.333	0.0582759
806.467	0.0586386
806.602	0.0577923
806.736	0.0582759
806.871	0.0600895
807.005	0.0590013
807.14	0.0591222
807.274	0.059364
807.409	0.0616612
807.543	0.0617821
807.678	0.0610567
807.812	0.0617821
807.947	0.0620239
808.081	0.0645629
808.216	0.0645629
808.35	0.0664974
808.485	0.0663765
808.619	0.0729053
808.754	0.0830613
808.888	0.140007
809.023	0.369726
809.157	0.715149
809.292	0.539113
809.426	0.615282
809.561	0.852497
809.695	1
809.83	0.758917
809.964	0.471043
810.099	0.269496
810.233	0.322936
810.368	0.84488
810.502	0.952968
810.637	0.442631
810.771	0.0905574
810.906	0.06952
811.04	0.0640793
811.175	0.0731471
811.309	0.0794342
811.444	0.0689155
811.578	0.0629912
811.713	0.0592431
811.847	0.0575505
811.982	0.0573087
812.116	0.0580341
812.251	0.0577923
812.385	0.0582759
812.519	0.0586386
812.654	0.0579132
812.788	0.0557369
812.923	0.0571878
813.057	0.0564623
813.192	0.0552533
813.326	0.0559787
813.461	0.055616
813.595	0.0552533
813.73	0.0562205
813.864	0.0560996
813.999	0.056946
814.133	0.0564623
814.268	0.054407
814.402	0.0547697
814.537	0.0548906
814.671	0.0568251
814.806	0.0558578
814.94	0.0564623
815.075	0.0554951
815.209	0.0557369
815.344	0.0557369
815.478	0.0542861
815.612	0.0519889
815.747	0.0542861
815.881	0.0553742
816.016	0.0545279
816.15	0.0546488
816.285	0.0560996
816.419	0.0551324
816.554	0.0533188
816.688	0.0538024
816.823	0.0558578
816.957	0.0545279
817.092	0.0539233
817.226	0.0540443
817.361	0.0540443
817.495	0.0562205
817.63	0.0554951
817.764	0.0560996
817.898	0.0558578
818.033	0.0527143
818.167	0.0541652
818.302	0.0541652
818.436	0.0542861
818.571	0.0551324
818.705	0.0546488
818.84	0.0547697
818.974	0.0536815
819.109	0.0554951
819.243	0.0550115
819.378	0.0550115
819.512	0.0550115
819.646	0.0558578
819.781	0.0560996
819.915	0.0547697
820.05	0.0527143
820.184	0.0553742
820.319	0.054407
820.453	0.0552533
820.588	0.0538024
820.722	0.054407
820.857	0.055616
820.991	0.0551324
821.126	0.0545279
821.26	0.0560996
821.394	0.0545279
821.529	0.0551324
821.663	0.0547697
821.798	0.0550115
821.932	0.0541652
822.067	0.0558578
822.201	0.051868
822.336	0.054407
822.47	0.0552533
822.605	0.0533188
822.739	0.0553742
822.873	0.0558578
823.008	0.054407
823.142	0.0550115
823.277	0.0524725
823.411	0.0541652
823.546	0.0539233
823.68	0.0541652
823.815	0.0545279
823.949	0.0552533
824.083	0.0534397
824.218	0.0533188
824.352	0.055616
824.487	0.0547697
824.621	0.0540443
824.756	0.0540443
824.89	0.0550115
825.025	0.055616
825.159	0.0550115
825.293	0.054407
825.428	0.0552533
825.562	0.0552533
825.697	0.0550115
825.831	0.0550115
825.966	0.0559787
826.1	0.0558578
826.235	0.0529561
826.369	0.055616
826.503	0.0546488
826.638	0.0535606
826.772	0.0539233
826.907	0.0533188
827.041	0.055616
827.176	0.0545279
827.31	0.0551324
827.445	0.0535606
827.579	0.0553742
827.713	0.0542861
827.848	0.0538024
827.982	0.0525934
828.117	0.0567041
828.251	0.0551324
828.386	0.0538024
828.52	0.0554951
828.654	0.0534397
828.789	0.0563414
828.923	0.0547697
829.058	0.0547697
829.192	0.054407
829.327	0.0550115
829.461	0.0548906
829.596	0.0548906
829.73	0.0536815
829.864	0.0536815
829.999	0.0540443
830.133	0.0548906
830.268	0.054407
830.402	0.0551324
830.537	0.0557369
830.671	0.055616
830.805	0.0559787
830.94	0.0552533
831.074	0.0551324
831.209	0.0536815
831.343	0.0554951
831.478	0.0528352
831.612	0.0547697
831.746	0.0554951
831.881	0.0535606
832.015	0.0535606
832.15	0.0538024
832.284	0.0557369
832.418	0.0533188
832.553	0.0533188
832.687	0.0542861
832.822	0.0547697
832.956	0.0535606
833.091	0.0533188
833.225	0.0548906
833.359	0.0567041
833.494	0.0533188
833.628	0.0541652
833.763	0.0535606
833.897	0.0545279
834.032	0.0553742
834.166	0.0546488
834.3	0.0550115
834.435	0.0562205
834.569	0.0541652
834.704	0.0539233
834.838	0.0553742
834.972	0.0560996
835.107	0.0541652
835.241	0.0557369
835.376	0.0548906
835.51	0.0553742
835.645	0.0547697
835.779	0.0545279
835.913	0.0554951
836.048	0.055616
836.182	0.0542861
836.317	0.0545279
836.451	0.0563414
836.585	0.0541652
836.72	0.0546488
836.854	0.0548906
836.989	0.0551324
837.123	0.053077
837.257	0.0542861
837.392	0.0552533
837.526	0.0554951
837.661	0.055616
837.795	0.0557369
837.929	0.055616
838.064	0.0541652
838.198	0.0553742
838.333	0.0536815
838.467	0.0539233
838.602	0.0552533
838.736	0.0542861
838.87	0.0553742
839.005	0.0562205
839.139	0.0554951
839.274	0.0550115
839.408	0.0531979
839.542	0.0531979
839.677	0.0554951
839.811	0.0545279
839.946	0.0542861
840.08	0.0548906
840.214	0.0541652
840.349	0.0554951
840.483	0.0548906
840.618	0.054407
840.752	0.0528352
840.886	0.0550115
841.021	0.0541652
841.155	0.0539233
841.29	0.0552533
841.424	0.0547697
841.558	0.054407
841.693	0.0533188
841.827	0.0546488
841.961	0.0558578
842.096	0.0558578
842.23	0.0565832
842.365	0.0545279
842.499	0.0545279
842.633	0.0534397
842.768	0.0563414
842.902	0.0524725
843.037	0.0545279
843.171	0.0538024
843.305	0.0538024
843.44	0.0536815
843.574	0.054407
843.709	0.0553742
843.843	0.0541652
843.977	0.0550115
844.112	0.0559787
844.246	0.0548906
844.381	0.0541652
844.515	0.0533188
844.649	0.0541652
844.784	0.054407
844.918	0.0546488
845.052	0.0554951
845.187	0.0541652
845.321	0.0563414
845.456	0.0541652
845.59	0.0545279
845.724	0.0545279
845.859	0.0559787
845.993	0.0539233
846.128	0.0540443
846.262	0.0545279
846.396	0.0542861
846.531	0.0536815
846.665	0.056946
846.799	0.0541652
846.934	0.0545279
847.068	0.0551324
847.203	0.0560996
847.337	0.0562205
847.471	0.0554951
847.606	0.0547697
847.74	0.0539233
847.874	0.0546488
848.009	0.0557369
848.143	0.0551324
848.278	0.0553742
848.412	0.053077
848.546	0.0539233
848.681	0.0539233
848.815	0.0546488
848.949	0.0538024
849.084	0.0531979
849.218	0.055616
849.353	0.0550115
849.487	0.0545279
849.621	0.0541652
849.756	0.0540443
849.89	0.0554951
850.024	0.0538024
850.159	0.0539233
850.293	0.0547697
850.428	0.0545279
850.562	0.0542861
850.696	0.0546488
850.831	0.0539233
850.965	0.0554951
851.099	0.0541652
851.234	0.0542861
851.368	0.0546488
851.502	0.0552533
851.637	0.0535606
851.771	0.0547697
851.906	0.0557369
852.04	0.0546488
852.174	0.0541652
852.309	0.0547697
852.443	0.0553742
852.577	0.0548906
852.712	0.0534397
852.846	0.0548906
852.98	0.0551324
853.115	0.0552533
853.249	0.0548906
853.384	0.0547697
853.518	0.0558578
853.652	0.0558578
853.787	0.0554951
853.921	0.0545279
854.055	0.0547697
854.19	0.0552533
854.324	0.0538024
854.458	0.0562205
854.593	0.0551324
854.727	0.0547697
854.861	0.0558578
854.996	0.0550115
855.13	0.0550115
855.265	0.054407
855.399	0.0545279
855.533	0.055616
855.668	0.0546488
855.802	0.0554951
855.936	0.0538024
856.071	0.0547697
856.205	0.0531979
856.339	0.0541652
856.474	0.0547697
856.608	0.0534397
856.742	0.0536815
856.877	0.0557369
857.011	0.0542861
857.145	0.054407
857.28	0.0552533
857.414	0.0534397
857.549	0.0531979
857.683	0.0541652
857.817	0.053077
857.952	0.0546488
858.086	0.0542861
858.22	0.0548906
858.355	0.0535606
858.489	0.0554951
858.623	0.0542861
858.758	0.0522307
858.892	0.0546488
859.026	0.0550115
859.161	0.0560996
859.295	0.0547697
859.429	0.0548906
859.564	0.0542861
859.698	0.0531979
859.832	0.054407
859.967	0.0552533
860.101	0.0545279
860.235	0.0557369
860.37	0.0533188
860.504	0.055616
860.638	0.054407
860.773	0.055616
860.907	0.0550115
861.041	0.0548906
861.176	0.0536815
861.31	0.0552533
861.444	0.054407
861.579	0.055616
861.713	0.0552533
861.847	0.0546488
861.982	0.0536815
862.116	0.0546488
862.25	0.0529561
862.385	0.0542861
862.519	0.0552533
862.653	0.0539233
862.788	0.0547697
862.922	0.0538024
863.056	0.054407
863.191	0.0545279
863.325	0.0533188
863.459	0.055616
863.594	0.0551324
863.728	0.0536815
863.862	0.0562205
863.997	0.0547697
864.131	0.0551324
864.265	0.0535606
864.4	0.0551324
864.534	0.053077
864.668	0.0551324
864.803	0.0551324
864.937	0.0558578
865.071	0.0545279
865.206	0.0547697
865.34	0.0536815
865.474	0.0545279
865.609	0.0542861
865.743	0.0552533
865.877	0.0542861
866.012	0.0536815
866.146	0.0558578
866.28	0.0546488
866.415	0.0551324
866.549	0.0553742
866.683	0.0534397
866.818	0.0551324
866.952	0.0550115
867.086	0.054407
867.221	0.0564623
867.355	0.0557369
867.489	0.0554951
867.623	0.0560996
867.758	0.0547697
867.892	0.0554951
868.026	0.0548906
868.161	0.0557369
868.295	0.0551324
868.429	0.0554951
868.564	0.0547697
868.698	0.0548906
868.832	0.0542861
868.967	0.0550115
869.101	0.0540443
869.235	0.0541652
869.37	0.0533188
869.504	0.0547697
869.638	0.0536815
869.773	0.055616
869.907	0.054407
870.041	0.0546488
870.175	0.0551324
870.31	0.0559787
870.444	0.0535606
870.578	0.0550115
870.713	0.0550115
870.847	0.0557369
870.981	0.0539233
871.116	0.0560996
871.25	0.0536815
871.384	0.0552533
871.519	0.0527143
871.653	0.0550115
871.787	0.0539233
871.921	0.0550115
872.056	0.0539233
872.19	0.0541652
872.324	0.0542861
872.459	0.0554951
872.593	0.0521098
872.727	0.053077
872.862	0.0539233
872.996	0.0548906
873.13	0.0531979
873.264	0.0551324
873.399	0.0553742
873.533	0.0540443
873.667	0.0548906
873.802	0.0548906
873.936	0.0558578
874.07	0.0542861
874.205	0.0538024
874.339	0.0546488
874.473	0.0540443
874.607	0.0535606
874.742	0.054407
874.876	0.0545279
875.01	0.0548906
875.145	0.0539233
875.279	0.0546488
875.413	0.055616
875.548	0.0546488
875.682	0.0557369
875.816	0.0538024
875.95	0.0538024
876.085	0.0546488
876.219	0.0547697
876.353	0.0540443
876.488	0.0541652
876.622	0.0563414
876.756	0.0540443
876.89	0.0552533
877.025	0.0558578
877.159	0.0547697
877.293	0.0542861
877.428	0.0542861
877.562	0.0535606
877.696	0.0552533
877.83	0.0540443
877.965	0.0538024
878.099	0.0547697
878.233	0.0547697
878.368	0.0553742
878.502	0.0557369
878.636	0.0541652
878.77	0.0562205
878.905	0.0551324
879.039	0.054407
879.173	0.0547697
879.308	0.0534397
879.442	0.0521098
879.576	0.0545279
879.71	0.0553742
879.845	0.0548906
879.979	0.0535606
880.113	0.0551324
880.248	0.0534397
880.382	0.0553742
880.516	0.0562205
880.65	0.0548906
880.785	0.0522307
880.919	0.0533188
881.053	0.0529561
881.188	0.0536815
881.322	0.0551324
881.456	0.0545279
881.59	0.0554951
881.725	0.0550115
881.859	0.0541652
881.993	0.0559787
882.127	0.0542861
882.262	0.0562205
882.396	0.0541652
882.53	0.0539233
882.665	0.0551324
882.799	0.0547697
882.933	0.054407
883.067	0.0550115
883.202	0.054407
883.336	0.0539233
883.47	0.0554951
883.604	0.0558578
883.739	0.0550115
883.873	0.0552533
884.007	0.0551324
884.142	0.0539233
884.276	0.0552533
884.41	0.0560996
884.544	0.0548906
884.679	0.055616
884.813	0.0534397
884.947	0.0547697
885.081	0.0558578
885.216	0.0546488
885.35	0.0550115
885.484	0.0550115
885.618	0.0560996
885.753	0.0551324
885.887	0.0550115
886.021	0.0540443
886.155	0.0551324
886.29	0.0539233
886.424	0.0550115
886.558	0.0552533
886.693	0.0547697
886.827	0.0527143
886.961	0.0550115
887.095	0.0541652
887.23	0.0558578
887.364	0.0548906
887.498	0.0542861
887.632	0.0564623
887.767	0.0545279
887.901	0.0531979
888.035	0.0545279
888.169	0.0551324
888.304	0.054407
888.438	0.0554951
888.572	0.0546488
888.706	0.054407
888.841	0.0547697
888.975	0.0542861
889.109	0.0522307
889.243	0.0553742
889.378	0.0533188
889.512	0.0541652
889.646	0.0559787
889.78	0.0563414
889.915	0.0540443
890.049	0.0553742
890.183	0.0551324
890.317	0.0545279
890.452	0.0548906
890.586	0.0531979
890.72	0.0536815
890.854	0.0542861
890.989	0.0552533
891.123	0.0529561
891.257	0.0531979
891.391	0.0540443
891.526	0.0531979
891.66	0.0531979
891.794	0.0540443
891.928	0.0546488
892.063	0.0533188
892.197	0.0547697
892.331	0.0547697
892.465	0.0559787
892.6	0.0547697
892.734	0.053077
892.868	0.0552533
893.002	0.0546488
893.137	0.0558578
893.271	0.0534397
893.405	0.0533188
893.539	0.0553742
893.674	0.0538024
893.808	0.0554951
893.942	0.0536815
894.076	0.0541652
894.21	0.0540443
894.345	0.0550115
894.479	0.0562205
894.613	0.0531979
894.747	0.0553742
894.882	0.0545279
895.016	0.054407
895.15	0.053077
895.284	0.0547697
895.419	0.0547697
895.553	0.0541652
895.687	0.0538024
895.821	0.0567041
895.956	0.0550115
896.09	0.055616
896.224	0.0542861
896.358	0.0562205
896.492	0.0541652
896.627	0.0545279
896.761	0.054407
896.895	0.0550115
897.029	0.0558578
897.164	0.0531979
897.298	0.0527143
897.432	0.0552533
897.566	0.0541652
897.701	0.0547697
897.835	0.054407
897.969	0.0550115
898.103	0.0552533
898.237	0.0542861
898.372	0.0564623
898.506	0.0554951
898.64	0.0548906
898.774	0.0535606
898.909	0.0546488
899.043	0.0545279
899.177	0.0538024
899.311	0.0542861
899.445	0.0547697
899.58	0.054407
899.714	0.0536815
899.848	0.0535606
899.982	0.0531979
900.117	0.0550115
900.251	0.0538024
900.385	0.0546488
900.519	0.053077
900.653	0.0541652
900.788	0.0533188
900.922	0.0542861
901.056	0.0553742
901.19	0.0554951
901.325	0.0553742
901.459	0.0552533
901.593	0.0559787
901.727	0.0533188
901.861	0.0550115
901.996	0.0540443
902.13	0.054407
902.264	0.0540443
902.398	0.0536815
902.532	0.0568251
902.667	0.054407
902.801	0.0567041
902.935	0.053077
903.069	0.0550115
903.204	0.0559787
903.338	0.0541652
903.472	0.0540443
903.606	0.0551324
903.74	0.054407
903.875	0.054407
904.009	0.053077
904.143	0.0545279
904.277	0.0550115
904.411	0.0550115
904.546	0.0560996
904.68	0.0553742
904.814	0.0560996
904.948	0.0539233
905.082	0.0540443
905.217	0.054407
905.351	0.0541652
905.485	0.0550115
905.619	0.0550115
905.753	0.0547697
905.888	0.0540443
906.022	0.0534397
906.156	0.0559787
906.29	0.0547697
906.424	0.054407
906.559	0.0534397
906.693	0.0513844
906.827	0.0534397
906.961	0.0534397
907.095	0.0552533
907.23	0.0542861
907.364	0.0548906
907.498	0.0559787
907.632	0.0524725
907.766	0.0527143
907.901	0.0547697
908.035	0.0536815
908.169	0.0535606
908.303	0.0545279
908.437	0.0538024
908.572	0.0548906
908.706	0.0545279
908.84	0.0534397
908.974	0.0541652
909.108	0.0547697
909.243	0.0550115
909.377	0.0540443
909.511	0.0563414
909.645	0.054407
909.779	0.0551324
909.914	0.0553742
910.048	0.0545279
910.182	0.0531979
910.316	0.0536815
910.45	0.0542861
910.585	0.0541652
910.719	0.0546488
910.853	0.0531979
910.987	0.0563414
911.121	0.0554951
911.255	0.0546488
911.39	0.0542861
911.524	0.0531979
911.658	0.0535606
911.792	0.0528352
911.926	0.055616
912.061	0.0551324
912.195	0.0563414
912.329	0.0562205
912.463	0.0557369
912.597	0.0553742
912.732	0.0551324
912.866	0.0538024
913	0.0513844
913.134	0.0553742
913.268	0.0559787
913.402	0.0563414
913.537	0.0553742
913.671	0.0546488
913.805	0.0536815
913.939	0.0538024
914.073	0.055616
914.208	0.0542861
914.342	0.0541652
914.476	0.0538024
914.61	0.0533188
914.744	0.0558578
914.878	0.0557369
915.013	0.0539233
915.147	0.0545279
915.281	0.0550115
915.415	0.0563414
915.549	0.0545279
915.683	0.0536815
915.818	0.0547697
915.952	0.0557369
916.086	0.053077
916.22	0.0546488
916.354	0.0540443
916.488	0.0523516
916.623	0.0558578
916.757	0.0554951
916.891	0.0536815
917.025	0.0553742
917.159	0.0542861
917.293	0.0564623
917.428	0.0540443
917.562	0.0538024
917.696	0.0565832
917.83	0.053077
917.964	0.0541652
918.098	0.0550115
918.233	0.0546488
918.367	0.0534397
918.501	0.0529561
918.635	0.0547697
918.769	0.0545279
918.903	0.0552533
919.038	0.0546488
919.172	0.0558578
919.306	0.0546488
919.44	0.0553742
919.574	0.0539233
919.708	0.0545279
919.843	0.0539233
919.977	0.0535606
920.111	0.0540443
920.245	0.0548906
920.379	0.0554951
920.513	0.0535606
920.648	0.0562205
920.782	0.0546488
920.916	0.0547697
921.05	0.0548906
921.184	0.053077
921.318	0.0562205
921.453	0.0547697
921.587	0.0546488
921.721	0.0538024
921.855	0.0540443
921.989	0.054407
922.123	0.054407
922.257	0.0546488
922.392	0.0564623
922.526	0.0563414
922.66	0.0536815
922.794	0.0548906
922.928	0.0546488
923.062	0.0535606
923.197	0.0546488
923.331	0.0554951
923.465	0.0559787
923.599	0.0553742
923.733	0.0558578
923.867	0.0547697
924.001	0.0534397
924.136	0.0538024
924.27	0.0553742
924.404	0.0510216
924.538	0.0546488
924.672	0.0529561
924.806	0.0545279
924.94	0.0542861
925.075	0.0553742
925.209	0.0545279
925.343	0.0546488
925.477	0.0554951
925.611	0.0548906
925.745	0.0546488
925.879	0.0538024
926.014	0.0542861
926.148	0.0551324
926.282	0.0558578
926.416	0.0564623
926.55	0.0552533
926.684	0.0550115
926.818	0.0536815
926.953	0.0540443
927.087	0.0534397
927.221	0.0552533
927.355	0.0534397
927.489	0.0545279
927.623	0.0553742
927.757	0.0541652
927.892	0.0563414
928.026	0.0542861
928.16	0.0541652
928.294	0.0545279
928.428	0.0550115
928.562	0.0546488
928.696	0.0547697
928.831	0.0542861
928.965	0.0529561
929.099	0.0548906
929.233	0.0548906
929.367	0.0546488
929.501	0.0557369
929.635	0.0554951
929.769	0.054407
929.904	0.0528352
930.038	0.0553742
930.172	0.0534397
930.306	0.0551324
930.44	0.0551324
930.574	0.053077
930.708	0.0550115
930.843	0.0559787
930.977	0.0557369
931.111	0.0541652
931.245	0.0547697
931.379	0.0562205
931.513	0.0533188
931.647	0.055616
931.781	0.0539233
931.916	0.0527143
932.05	0.0552533
932.184	0.054407
932.318	0.0539233
932.452	0.0534397
932.586	0.054407
932.72	0.0534397
932.854	0.0538024
932.989	0.0545279
933.123	0.0551324
933.257	0.0558578
933.391	0.0539233
933.525	0.0539233
933.659	0.0553742
933.793	0.0540443
933.927	0.0551324
934.061	0.0546488
934.196	0.0546488
934.33	0.0553742
934.464	0.0553742
934.598	0.0534397
934.732	0.0548906
934.866	0.0558578
935	0.0563414
935.134	0.0562205
935.269	0.0557369
935.403	0.054407
935.537	0.0542861
935.671	0.0551324
935.805	0.0539233
935.939	0.0541652
936.073	0.0560996
936.207	0.0553742
936.341	0.0533188
936.476	0.0552533
936.61	0.0547697
936.744	0.0552533
936.878	0.0563414
937.012	0.0540443
937.146	0.0548906
937.28	0.0535606
937.414	0.0539233
937.548	0.0538024
937.683	0.0546488
937.817	0.0545279
937.951	0.0525934
938.085	0.0545279
938.219	0.055616
938.353	0.0551324
938.487	0.0551324
938.621	0.0552533
938.755	0.0545279
938.889	0.0552533
939.024	0.0553742
939.158	0.0539233
939.292	0.0545279
939.426	0.0538024
939.56	0.0551324
939.694	0.0538024
939.828	0.0528352
939.962	0.0541652
940.096	0.0541652
940.231	0.0567041
940.365	0.0533188
940.499	0.0541652
940.633	0.0542861
940.767	0.0542861
940.901	0.0540443
941.035	0.0535606
941.169	0.0552533
941.303	0.055616
941.437	0.0546488
941.571	0.055616
941.706	0.0541652
941.84	0.0541652
941.974	0.0538024
942.108	0.0529561
942.242	0.0550115
942.376	0.0550115
942.51	0.0541652
942.644	0.0540443
942.778	0.0534397
942.912	0.0552533
943.047	0.0533188
943.181	0.0535606
943.315	0.0552533
943.449	0.0563414
943.583	0.0541652
943.717	0.0539233
943.851	0.0542861
943.985	0.0560996
944.119	0.0554951
944.253	0.0550115
944.387	0.0541652
944.522	0.0540443
944.656	0.0558578
944.79	0.054407
944.924	0.0545279
945.058	0.0560996
945.192	0.0531979
945.326	0.0528352
945.46	0.0559787
945.594	0.0538024
945.728	0.055616
945.862	0.0552533
945.996	0.053077
946.131	0.0548906
946.265	0.0552533
946.399	0.0552533
946.533	0.0547697
946.667	0.054407
946.801	0.0558578
946.935	0.0553742
947.069	0.055616
947.203	0.0533188
947.337	0.0539233
947.471	0.0542861
947.605	0.0552533
947.739	0.055616
947.874	0.0524725
948.008	0.0550115
948.142	0.054407
948.276	0.0552533
948.41	0.054407
948.544	0.0540443
948.678	0.0542861
948.812	0.0551324
948.946	0.0540443
949.08	0.0550115
949.214	0.0538024
949.348	0.0557369
949.482	0.0546488
949.617	0.0547697
949.751	0.0564623
949.885	0.0540443
950.019	0.0552533
950.153	0.0545279
950.287	0.0542861
950.421	0.0545279
950.555	0.0531979
950.689	0.0542861
950.823	0.0552533
950.957	0.0557369
951.091	0.055616
951.225	0.0551324
951.359	0.054407
951.493	0.0539233
951.628	0.0545279
951.762	0.0545279
951.896	0.0548906
952.03	0.0550115
952.164	0.0539233
952.298	0.0539233
952.432	0.0562205
952.566	0.0550115
952.7	0.0545279
952.834	0.0539233
952.968	0.0547697
953.102	0.0552533
953.236	0.0546488
953.37	0.0567041
953.504	0.0547697
953.639	0.0559787
953.773	0.0542861
953.907	0.0546488
954.041	0.0522307
954.175	0.0540443
954.309	0.0545279
954.443	0.0534397
954.577	0.0535606
954.711	0.0560996
954.845	0.0529561
954.979	0.0552533
955.113	0.0525934
955.247	0.0540443
955.381	0.054407
955.515	0.0529561
955.649	0.0535606
955.783	0.0552533
955.917	0.0547697
956.052	0.0548906
956.186	0.0523516
956.32	0.0551324
956.454	0.0534397
956.588	0.0538024
956.722	0.0563414
956.856	0.0558578
956.99	0.054407
957.124	0.054407
957.258	0.0548906
957.392	0.0529561
957.526	0.054407
957.66	0.054407
957.794	0.0535606
957.928	0.0552533
958.062	0.0550115
958.196	0.0548906
958.33	0.0542861
958.464	0.0546488
958.598	0.0550115
958.733	0.0534397
958.867	0.0558578
959.001	0.0539233
959.135	0.0551324
959.269	0.0560996
959.403	0.0553742
959.537	0.0540443
959.671	0.0557369
959.805	0.0535606
959.939	0.0536815
960.073	0.0557369
960.207	0.0557369
960.341	0.0538024
960.475	0.0545279
960.609	0.0546488
960.743	0.0547697
960.877	0.054407
961.011	0.0541652
961.145	0.0554951
961.279	0.0550115
961.413	0.0536815
961.547	0.0551324
961.681	0.0554951
961.815	0.0554951
961.949	0.0548906
962.083	0.0541652
962.218	0.0553742
962.352	0.0551324
962.486	0.0545279
962.62	0.0553742
962.754	0.0554951
962.888	0.0550115
963.022	0.0552533
963.156	0.0548906
963.29	0.0550115
963.424	0.0541652
963.558	0.054407
963.692	0.0546488
963.826	0.0550115
963.96	0.0538024
964.094	0.0560996
964.228	0.0546488
964.362	0.0558578
964.496	0.0546488
964.63	0.0548906
964.764	0.0552533
964.898	0.0542861
965.032	0.0546488
965.166	0.0540443
965.3	0.0542861
965.434	0.0540443
965.568	0.0546488
965.702	0.0574296
965.836	0.0564623
965.97	0.0541652
966.104	0.0558578
966.238	0.0548906
966.372	0.0542861
966.506	0.0534397
966.64	0.053077
966.774	0.0559787
966.908	0.0545279
967.043	0.0540443
967.177	0.0553742
967.311	0.0546488
967.445	0.0542861
967.579	0.0553742
967.713	0.0546488
967.847	0.0550115
967.981	0.0531979
968.115	0.0547697
968.249	0.0541652
968.383	0.0529561
968.517	0.0546488
968.651	0.0541652
968.785	0.0563414
968.919	0.0547697
969.053	0.0547697
969.187	0.0550115
969.321	0.0540443
969.455	0.0540443
969.589	0.0547697
969.723	0.054407
969.857	0.0540443
969.991	0.0545279
970.125	0.0551324
970.259	0.0539233
970.393	0.0559787
970.527	0.055616
970.661	0.0546488
970.795	0.0545279
970.929	0.0551324
971.063	0.0552533
971.197	0.0547697
971.331	0.0541652
971.465	0.0529561
971.599	0.0546488
971.733	0.0542861
971.867	0.0535606
972.001	0.0552533
972.135	0.0542861
972.269	0.0542861
972.403	0.055616
972.537	0.0547697
972.671	0.0552533
972.805	0.0550115
972.939	0.0547697
973.073	0.0548906
973.207	0.0542861
973.341	0.0553742
973.475	0.0547697
973.609	0.0535606
973.743	0.0550115
973.877	0.0560996
974.011	0.0538024
974.145	0.053077
974.279	0.0554951
974.413	0.0547697
974.547	0.053077
974.681	0.0552533
974.815	0.0534397
974.949	0.0551324
975.083	0.0546488
975.217	0.054407
975.351	0.0535606
975.485	0.0552533
975.619	0.0545279
975.753	0.0535606
975.887	0.0542861
976.021	0.054407
976.155	0.0541652
976.289	0.0538024
976.423	0.0538024
976.557	0.0538024
976.691	0.054407
976.825	0.0551324
976.959	0.054407
977.093	0.0557369
977.227	0.0550115
977.361	0.0538024
977.495	0.0554951
977.629	0.0551324
977.763	0.0540443
977.897	0.0552533
978.031	0.0558578
978.165	0.0557369
978.299	0.0552533
978.433	0.0522307
978.567	0.0545279
978.701	0.0538024
978.835	0.0547697
978.969	0.0542861
979.103	0.0528352
979.237	0.0552533
979.371	0.0540443
979.505	0.0536815
979.639	0.0563414
979.773	0.0529561
979.907	0.0541652
980.041	0.0548906
980.175	0.0531979
980.308	0.0548906
980.442	0.0560996
980.576	0.0550115
980.71	0.0541652
980.844	0.0538024
980.978	0.0552533
981.112	0.0547697
981.246	0.0557369
981.38	0.054407
981.514	0.0548906
981.648	0.0550115
981.782	0.0562205
981.916	0.0545279
982.05	0.0545279
982.184	0.0536815
982.318	0.054407
982.452	0.0548906
982.586	0.0558578
982.72	0.0552533
982.854	0.0547697
982.988	0.0531979
983.122	0.0554951
983.256	0.0541652
983.39	0.0538024
983.524	0.0547697
983.658	0.0557369
983.792	0.0542861
983.926	0.0541652
984.06	0.0534397
984.194	0.0551324
984.328	0.053077
984.462	0.0538024
984.596	0.0539233
984.73	0.0548906
984.864	0.0528352
984.998	0.0538024
985.132	0.0546488
985.265	0.0554951
985.399	0.0547697
985.533	0.0547697
985.667	0.0546488
985.801	0.055616
985.935	0.0552533
986.069	0.0547697
986.203	0.0550115
986.337	0.0546488
986.471	0.0536815
986.605	0.0546488
986.739	0.0545279
986.873	0.0534397
987.007	0.0550115
987.141	0.054407
987.275	0.0562205
987.409	0.0553742
987.543	0.0536815
987.677	0.0546488
987.811	0.0553742
987.945	0.0527143
988.079	0.0548906
988.213	0.0542861
988.347	0.0552533
988.481	0.0548906
988.614	0.0539233
988.748	0.055616
988.882	0.0546488
989.016	0.0541652
989.15	0.055616
989.284	0.0558578
989.418	0.0539233
989.552	0.0545279
989.686	0.0542861
989.82	0.0551324
989.954	0.0534397
990.088	0.0541652
990.222	0.0541652
990.356	0.0547697
990.49	0.0553742
990.624	0.0547697
990.758	0.0541652
990.892	0.0548906
991.026	0.0548906
991.16	0.0538024
991.294	0.0542861
991.427	0.0554951
991.561	0.0534397
991.695	0.0553742
991.829	0.0554951
991.963	0.0535606
992.097	0.055616
992.231	0.0542861
992.365	0.0540443
992.499	0.0547697
992.633	0.055616
992.767	0.0547697
992.901	0.0536815
993.035	0.0548906
993.169	0.0553742
993.303	0.0542861
993.437	0.0558578
993.571	0.054407
993.704	0.0559787
993.838	0.0554951
993.972	0.0545279
994.106	0.0551324
994.24	0.0552533
994.374	0.0546488
994.508	0.0529561
994.642	0.0553742
994.776	0.0557369
994.91	0.053077
995.044	0.0545279
995.178	0.0548906
995.312	0.0539233
995.446	0.0541652
995.58	0.0548906
995.714	0.0546488
995.847	0.054407
995.981	0.0547697
996.115	0.0550115
996.249	0.0546488
996.383	0.0558578
996.517	0.0548906
996.651	0.0535606
996.785	0.0533188
996.919	0.0542861
997.053	0.0547697
997.187	0.0547697
997.321	0.0546488
997.455	0.0529561
997.589	0.0550115
997.722	0.0545279
997.856	0.0542861
997.99	0.0539233
998.124	0.0554951
998.258	0.0539233
998.392	0.0546488
998.526	0.0552533
998.66	0.0550115
998.794	0.0542861
998.928	0.0536815
999.062	0.0542861
999.196	0.0542861
999.33	0.0551324
999.464	0.0560996
999.597	0.0541652
999.731	0.0546488
999.865	0.0565832
999.999	0.0559787
1000.13	0.0525934
1000.27	0.0542861
1000.4	0.0545279
1000.53	0.0551324
1000.67	0.0560996
1000.8	0.0558578
1000.94	0.0534397
1001.07	0.0540443
1001.2	0.054407
1001.34	0.0545279
1001.47	0.0551324
1001.61	0.0540443
1001.74	0.0545279
1001.87	0.0553742
1002.01	0.0535606
1002.14	0.0546488
1002.28	0.0527143
1002.41	0.0558578
1002.54	0.0545279
1002.68	0.0538024
1002.81	0.0565832
1002.95	0.0548906
1003.08	0.054407
1003.21	0.0545279
1003.35	0.0542861
1003.48	0.0548906
1003.61	0.0557369
1003.75	0.053077
1003.88	0.0554951
1004.02	0.0541652
1004.15	0.0545279
1004.28	0.0558578
1004.42	0.0562205
1004.55	0.0552533
1004.69	0.0552533
1004.82	0.055616
1004.95	0.0546488
1005.09	0.0542861
1005.22	0.054407
1005.36	0.0554951
1005.49	0.0539233
1005.62	0.0551324
1005.76	0.0545279
1005.89	0.0538024
1006.03	0.0535606
1006.16	0.0545279
1006.29	0.0557369
1006.43	0.0541652
1006.56	0.0538024
1006.69	0.0550115
1006.83	0.0551324
1006.96	0.0550115
1007.1	0.0547697
1007.23	0.0547697
1007.36	0.0540443
1007.5	0.0548906
1007.63	0.0531979
1007.77	0.0547697
1007.9	0.054407
1008.03	0.0547697
1008.17	0.0564623
1008.3	0.0550115
1008.44	0.0541652
1008.57	0.054407
1008.7	0.0540443
1008.84	0.0547697
1008.97	0.0535606
1009.1	0.0550115
1009.24	0.0539233
1009.37	0.0563414
1009.51	0.0550115
1009.64	0.0550115
1009.77	0.0559787
1009.91	0.0567041
1010.04	0.0553742
1010.18	0.0552533
1010.31	0.055616
1010.44	0.0540443
1010.58	0.0538024
1010.71	0.0538024
1010.85	0.0540443
1010.98	0.0542861
1011.11	0.0536815
1011.25	0.0528352
1011.38	0.0554951
1011.51	0.0539233
1011.65	0.0560996
1011.78	0.0524725
1011.92	0.0545279
1012.05	0.0547697
1012.18	0.0545279
1012.32	0.0541652
1012.45	0.0536815
1012.59	0.056946
1012.72	0.0547697
1012.85	0.0538024
1012.99	0.0551324
1013.12	0.0552533
1013.26	0.0560996
1013.39	0.0548906
1013.52	0.0546488
1013.66	0.0541652
1013.79	0.0562205
1013.92	0.0560996
1014.06	0.0546488
1014.19	0.0547697
1014.33	0.0545279
1014.46	0.0546488
1014.59	0.0533188
1014.73	0.0533188
1014.86	0.0550115
1015	0.0564623
1015.13	0.0531979
1015.26	0.0545279
1015.4	0.0554951
1015.53	0.0547697
1015.67	0.0559787
1015.8	0.0558578
1015.93	0.0541652
1016.07	0.0550115
1016.2	0.0542861
1016.33	0.0531979
1016.47	0.0527143
1016.6	0.0540443
1016.74	0.0525934
1016.87	0.0541652
1017	0.0558578
1017.14	0.0550115
1017.27	0.0551324
1017.41	0.0554951
1017.54	0.0547697
1017.67	0.0545279
1017.81	0.055616
1017.94	0.0548906
1018.07	0.0557369
1018.21	0.0541652
1018.34	0.0562205
1018.48	0.054407
1018.61	0.0548906
1018.74	0.0540443
1018.88	0.0540443
1019.01	0.0545279
1019.15	0.054407
1019.28	0.0529561
1019.41	0.0539233
1019.55	0.0542861
1019.68	0.0539233
1019.82	0.0545279
1019.95	0.0541652
1020.08	0.0551324
1020.22	0.0542861
1020.35	0.0545279
1020.48	0.0540443
1020.62	0.0535606
1020.75	0.0539233
1020.89	0.0551324
1021.02	0.0562205
1021.15	0.0546488
1021.29	0.0548906
1021.42	0.0558578
1021.56	0.0539233
1021.69	0.0547697
1021.82	0.0528352
1021.96	0.0560996
1022.09	0.0552533
1022.22	0.053077
1022.36	0.0546488
1022.49	0.0547697
1022.63	0.0552533
1022.76	0.0545279
1022.89	0.0550115
1023.03	0.0548906
1023.16	0.0539233
1023.3	0.0527143
1023.43	0.0551324
1023.56	0.0557369
1023.7	0.0539233
1023.83	0.0542861
1023.96	0.0552533
1024.1	0.0548906
1024.23	0.055616
1024.37	0.0545279
1024.5	0.0558578
1024.63	0.0531979
1024.77	0.0550115
1024.9	0.0540443
1025.04	0.0536815
1025.17	0.0541652
1025.3	0.0541652
1025.44	0.0546488
1025.57	0.0540443
1025.7	0.053077
1025.84	0.0542861
1025.97	0.0529561
1026.11	0.0551324
1026.24	0.0545279
1026.37	0.0539233
1026.51	0.0540443
1026.64	0.0557369
1026.78	0.0548906
1026.91	0.053077
1027.04	0.0568251
1027.18	0.0552533
1027.31	0.0554951
1027.44	0.0548906
1027.58	0.0542861
1027.71	0.0531979
1027.85	0.055616
1027.98	0.0542861
1028.11	0.0542861
1028.25	0.0540443
1028.38	0.0558578
1028.52	0.0567041
1028.65	0.0558578
1028.78	0.0545279
1028.92	0.0540443
1029.05	0.055616
1029.18	0.0550115
1029.32	0.0538024
1029.45	0.054407
1029.59	0.0538024
1029.72	0.0551324
1029.85	0.0545279
1029.99	0.0546488
1030.12	0.0546488
1030.26	0.0546488
1030.39	0.054407
1030.52	0.0536815
1030.66	0.0551324
1030.79	0.0539233
1030.92	0.054407
1031.06	0.0551324
1031.19	0.0551324
1031.33	0.0550115
1031.46	0.0551324
1031.59	0.0560996
1031.73	0.0546488
1031.86	0.0539233
1031.99	0.0539233
1032.13	0.0536815
1032.26	0.0536815
1032.4	0.0554951
1032.53	0.0552533
1032.66	0.0539233
1032.8	0.055616
1032.93	0.0541652
1033.07	0.0552533
1033.2	0.054407
1033.33	0.0534397
1033.47	0.0539233
1033.6	0.0558578
1033.73	0.0534397
1033.87	0.0548906
1034	0.0539233
1034.14	0.0539233
1034.27	0.0533188
1034.4	0.0546488
1034.54	0.0554951
1034.67	0.0546488
1034.81	0.0558578
1034.94	0.055616
1035.07	0.0547697
1035.21	0.0547697
1035.34	0.0540443
1035.47	0.0552533
1035.61	0.055616
1035.74	0.0547697
1035.88	0.0550115
1036.01	0.0541652
1036.14	0.0554951
1036.28	0.0554951
1036.41	0.053077
1036.54	0.0559787
1036.68	0.0529561
1036.81	0.0559787
1036.95	0.0540443
1037.08	0.0548906
1037.21	0.0546488
1037.35	0.0552533
1037.48	0.0548906
1037.62	0.0535606
1037.75	0.0547697
1037.88	0.0553742
1038.02	0.0553742
1038.15	0.0551324
1038.28	0.0545279
1038.42	0.0534397
1038.55	0.0547697
1038.69	0.053077
1038.82	0.0546488
1038.95	0.0540443
1039.09	0.0541652
1039.22	0.0542861
1039.35	0.0545279
1039.49	0.0562205
1039.62	0.0552533
1039.76	0.0563414
1039.89	0.0539233
1040.02	0.0528352
1040.16	0.0552533
1040.29	0.0538024
1040.43	0.0534397
1040.56	0.0545279
1040.69	0.0540443
1040.83	0.0536815
1040.96	0.0521098
1041.09	0.054407
1041.23	0.0535606
1041.36	0.0527143
1041.5	0.0539233
1041.63	0.0527143
1041.76	0.0541652
1041.9	0.0557369
1042.03	0.0528352
1042.16	0.0554951
1042.3	0.054407
1042.43	0.0554951
1042.57	0.0559787
1042.7	0.0568251
1042.83	0.0546488
1042.97	0.0542861
1043.1	0.0554951
1043.23	0.0539233
1043.37	0.0541652
1043.5	0.0545279
1043.64	0.0538024
1043.77	0.0542861
1043.9	0.0550115
1044.04	0.0536815
1044.17	0.0539233
1044.31	0.0551324
1044.44	0.0570669
1044.57	0.0557369
1044.71	0.0550115
1044.84	0.0547697
1044.97	0.0541652
1045.11	0.0552533
1045.24	0.0562205
1045.38	0.0563414
1045.51	0.0540443
1045.64	0.0545279
1045.78	0.0551324
1045.91	0.0550115
1046.04	0.0539233
1046.18	0.054407
1046.31	0.0553742
1046.45	0.0562205
1046.58	0.0538024
1046.71	0.0548906
1046.85	0.0559787
1046.98	0.0545279
1047.11	0.0545279
1047.25	0.0541652
1047.38	0.0540443
1047.52	0.0550115
1047.65	0.055616
1047.78	0.0550115
1047.92	0.053077
1048.05	0.0545279
1048.18	0.0550115
1048.32	0.0536815
1048.45	0.0548906
1048.59	0.0534397
1048.72	0.0554951
1048.85	0.0559787
1048.99	0.0536815
1049.12	0.0540443
1049.25	0.0553742
1049.39	0.0545279
1049.52	0.0560996
1049.66	0.0542861
1049.79	0.0551324
1049.92	0.0546488
1050.06	0.0529561
1050.19	0.0540443
1050.33	0.054407
1050.46	0.0546488
1050.59	0.054407
1050.73	0.0535606
1050.86	0.0553742
1050.99	0.0545279
1051.13	0.0538024
1051.26	0.0545279
1051.4	0.0562205
1051.53	0.0550115
1051.66	0.054407
1051.8	0.0536815
1051.93	0.0538024
1052.06	0.0553742
1052.2	0.0542861
1052.33	0.054407
1052.47	0.0542861
1052.6	0.0541652
1052.73	0.0539233
1052.87	0.0550115
1053	0.0541652
1053.13	0.0546488
1053.27	0.0523516
1053.4	0.0546488
1053.54	0.0548906
1053.67	0.0562205
1053.8	0.0546488
1053.94	0.0552533
1054.07	0.0536815
1054.2	0.0536815
1054.34	0.0541652
1054.47	0.0542861
1054.61	0.0563414
1054.74	0.055616
1054.87	0.0527143
1055.01	0.0541652
1055.14	0.0554951
1055.27	0.0547697
1055.41	0.0539233
1055.54	0.0547697
1055.68	0.0560996
1055.81	0.0547697
1055.94	0.0552533
1056.08	0.0552533
1056.21	0.0545279
1056.34	0.055616
1056.48	0.0552533
1056.61	0.0542861
1056.75	0.0540443
1056.88	0.0541652
1057.01	0.0558578
1057.15	0.0553742
1057.28	0.0536815
1057.41	0.0557369
1057.55	0.0540443
1057.68	0.0535606
1057.82	0.0542861
1057.95	0.0541652
1058.08	0.0539233
1058.22	0.0564623
1058.35	0.0540443
1058.48	0.0545279
1058.62	0.0547697
1058.75	0.0538024
1058.89	0.0548906
1059.02	0.0538024
1059.15	0.0538024
1059.29	0.0546488
1059.42	0.0550115
1059.55	0.0539233
1059.69	0.0547697
1059.82	0.0546488
1059.96	0.053077
1060.09	0.0563414
1060.22	0.0517471
1060.36	0.0541652
1060.49	0.055616
1060.62	0.0552533
1060.76	0.055616
1060.89	0.0558578
1061.03	0.0550115
1061.16	0.0568251
1061.29	0.0531979
1061.43	0.0552533
1061.56	0.0535606
1061.69	0.0565832
1061.83	0.0558578
1061.96	0.0548906
1062.1	0.0535606
1062.23	0.0564623
1062.36	0.0522307
1062.5	0.0545279
1062.63	0.0557369
1062.76	0.054407
1062.9	0.0547697
1063.03	0.0534397
1063.17	0.0545279
1063.3	0.0545279
1063.43	0.0535606
1063.57	0.0554951
1063.7	0.0553742
1063.83	0.0550115
1063.97	0.0542861
1064.1	0.0562205
1064.23	0.0545279
1064.37	0.0552533
1064.5	0.055616
1064.64	0.0553742
1064.77	0.0552533
1064.9	0.0548906
1065.04	0.0552533
1065.17	0.0533188
1065.3	0.0533188
1065.44	0.0550115
1065.57	0.0548906
1065.71	0.0539233
1065.84	0.0542861
1065.97	0.0564623
1066.11	0.0546488
1066.24	0.0540443
1066.37	0.0535606
1066.51	0.0536815
1066.64	0.0550115
1066.78	0.0541652
1066.91	0.0542861
1067.04	0.0525934
1067.18	0.0547697
1067.31	0.0538024
1067.44	0.0539233
1067.58	0.0533188
1067.71	0.0539233
1067.85	0.0535606
1067.98	0.0563414
1068.11	0.0551324
1068.25	0.0551324
1068.38	0.0550115
1068.51	0.0547697
1068.65	0.0528352
1068.78	0.0533188
1068.92	0.0533188
1069.05	0.0541652
1069.18	0.054407
1069.32	0.0551324
1069.45	0.0551324
1069.58	0.0554951
1069.72	0.0559787
1069.85	0.0546488
1069.98	0.0548906
1070.12	0.0538024
1070.25	0.0536815
1070.39	0.0553742
1070.52	0.0535606
1070.65	0.0527143
1070.79	0.0536815
1070.92	0.0554951
1071.05	0.0548906
1071.19	0.0547697
1071.32	0.0552533
1071.46	0.0552533
1071.59	0.0541652
1071.72	0.0548906
1071.86	0.0557369
1071.99	0.0551324
1072.12	0.055616
1072.26	0.0545279
1072.39	0.0536815
1072.53	0.0552533
1072.66	0.0534397
1072.79	0.0551324
1072.93	0.0545279
1073.06	0.054407
1073.19	0.0550115
1073.33	0.0536815
1073.46	0.054407
1073.59	0.0536815
1073.73	0.054407
1073.86	0.0536815
1074	0.0529561
1074.13	0.0539233
1074.26	0.0535606
1074.4	0.0551324
1074.53	0.0547697
1074.66	0.0538024
1074.8	0.0550115
1074.93	0.0557369
1075.07	0.0523516
1075.2	0.0558578
1075.33	0.0546488
1075.47	0.0547697
1075.6	0.0541652
1075.73	0.0552533
1075.87	0.0550115
1076	0.0540443
1076.14	0.0540443
1076.27	0.0546488
1076.4	0.0553742
1076.54	0.0545279
1076.67	0.0539233
1076.8	0.0546488
1076.94	0.0531979
1077.07	0.054407
1077.2	0.0523516
1077.34	0.0546488
1077.47	0.0542861
1077.61	0.0553742
1077.74	0.0570669
1077.87	0.0548906
1078.01	0.0542861
1078.14	0.0531979
1078.27	0.0534397
1078.41	0.0560996
1078.54	0.0541652
1078.68	0.0542861
1078.81	0.0548906
1078.94	0.0524725
1079.08	0.0535606
1079.21	0.0545279
1079.34	0.0540443
1079.48	0.0548906
1079.61	0.0538024
1079.74	0.0536815
1079.88	0.0541652
1080.01	0.0546488
1080.15	0.0559787
1080.28	0.0550115
1080.41	0.0548906
1080.55	0.0533188
1080.68	0.0551324
1080.81	0.0534397
1080.95	0.054407
1081.08	0.0560996
1081.22	0.0538024
1081.35	0.0560996
1081.48	0.0550115
1081.62	0.0551324
1081.75	0.0550115
1081.88	0.0545279
1082.02	0.0538024
1082.15	0.0551324
1082.28	0.0546488
1082.42	0.0541652
1082.55	0.0534397
1082.69	0.0557369
1082.82	0.0541652
1082.95	0.0546488
1083.09	0.0536815
1083.22	0.0545279
1083.35	0.054407
1083.49	0.0557369
1083.62	0.054407
1083.75	0.0548906
1083.89	0.0542861
1084.02	0.0536815
1084.16	0.0529561
1084.29	0.0533188
1084.42	0.0524725
1084.56	0.0550115
1084.69	0.0550115
1084.82	0.0538024
1084.96	0.0541652
1085.09	0.0534397
1085.23	0.0565832
1085.36	0.054407
1085.49	0.0552533
1085.63	0.0541652
1085.76	0.0553742
1085.89	0.0542861
1086.03	0.0554951
1086.16	0.0546488
1086.29	0.0557369
1086.43	0.0550115
1086.56	0.055616
1086.7	0.0539233
1086.83	0.0550115
1086.96	0.0539233
1087.1	0.0570669
1087.23	0.0553742
1087.36	0.0552533
1087.5	0.0551324
1087.63	0.0560996
1087.76	0.0548906
1087.9	0.0548906
1088.03	0.0563414
1088.17	0.0545279
1088.3	0.0546488
1088.43	0.0558578
1088.57	0.0531979
1088.7	0.0539233
1088.83	0.0545279
1088.97	0.0546488
1089.1	0.0538024
1089.24	0.0551324
1089.37	0.0547697
1089.5	0.0558578
1089.64	0.0548906
1089.77	0.0551324
1089.9	0.0539233
1090.04	0.053077
1090.17	0.0542861
1090.3	0.0540443
1090.44	0.0548906
1090.57	0.0546488
1090.71	0.0547697
1090.84	0.0553742
1090.97	0.0542861
1091.11	0.0547697
1091.24	0.0533188
1091.37	0.0542861
1091.51	0.0558578
1091.64	0.0550115
1091.77	0.0540443
1091.91	0.0548906
1092.04	0.0547697
1092.18	0.0541652
1092.31	0.0533188
1092.44	0.0550115
1092.58	0.0535606
1092.71	0.0554951
1092.84	0.0535606
1092.98	0.055616
1093.11	0.0554951
1093.24	0.0564623
1093.38	0.0552533
1093.51	0.0547697
1093.65	0.0554951
1093.78	0.0531979
1093.91	0.0540443
1094.05	0.054407
1094.18	0.0539233
1094.31	0.0534397
1094.45	0.0554951
1094.58	0.0524725
1094.71	0.0563414
1094.85	0.0533188
1094.98	0.0531979
1095.12	0.0547697
1095.25	0.0547697
1095.38	0.0524725
1095.52	0.0538024
1095.65	0.0542861
1095.78	0.0548906
1095.92	0.0546488
1096.05	0.0554951
1096.18	0.0564623
1096.32	0.0528352
1096.45	0.0536815
1096.59	0.0536815
1096.72	0.0552533
1096.85	0.0536815
1096.99	0.0540443
1097.12	0.054407
1097.25	0.0550115
1097.39	0.0545279
1097.52	0.0540443
1097.65	0.0539233
1097.79	0.0557369
1097.92	0.0524725
1098.06	0.0547697
1098.19	0.054407
1098.32	0.0546488
1098.46	0.0551324
1098.59	0.0545279
1098.72	0.0558578
1098.86	0.0554951
1098.99	0.0553742
1099.12	0.0552533
1099.26	0.0547697
1099.39	0.0554951
1099.53	0.0547697
1099.66	0.0550115
1099.79	0.0547697
1099.93	0.054407
1100.06	0.0551324
1100.19	0.0565832
1100.33	0.0545279
1100.46	0.0516262
1100.59	0.055616
1100.73	0.0541652
1100.86	0.054407
1100.99	0.0542861
1101.13	0.0539233
1101.26	0.0546488
1101.4	0.0550115
1101.53	0.0541652
1101.66	0.0538024
1101.8	0.0564623
1101.93	0.0539233
1102.06	0.0536815
1102.2	0.0560996
1102.33	0.055616
1102.46	0.0542861
1102.6	0.0548906
1102.73	0.0548906
1102.87	0.0550115
1103	0.0548906
1103.13	0.0554951
1103.27	0.0546488
1103.4	0.055616
1103.53	0.0564623
1103.67	0.0541652
1103.8	0.0562205
1103.93	0.0560996
1104.07	0.0533188
1104.2	0.0558578
1104.34	0.0558578
1104.47	0.0540443
1104.6	0.0550115
1104.74	0.0554951
1104.87	0.0548906
1105	0.0542861
1105.14	0.0553742
1105.27	0.0553742
1105.4	0.0550115
1105.54	0.0545279
1105.67	0.0546488
1105.8	0.0550115
1105.94	0.054407
1106.07	0.0542861
1106.21	0.0557369
1106.34	0.0535606
1106.47	0.0540443
1106.61	0.0552533
1106.74	0.0534397
1106.87	0.0542861
1107.01	0.0541652
1107.14	0.0550115
1107.27	0.0559787
1107.41	0.0542861
1107.54	0.0539233

