Source: Spectrum Viewer

Chart: Pulse Spectrum

Series: 
Wavelength (nm)	S (a.u.)
617.638	0.0409313
617.773	0.0414857
617.908	0.0415781
618.043	0.0416705
618.178	0.0421325
618.313	0.0419477
618.448	0.0418553
618.583	0.0418553
618.718	0.0419477
618.853	0.0428717
618.988	0.0407466
619.123	0.0414857
619.258	0.0410237
619.394	0.0420401
619.529	0.0411161
619.664	0.0423173
619.799	0.0426869
619.934	0.0422249
620.069	0.0425945
620.204	0.0405618
620.339	0.0404694
620.474	0.0412085
620.609	0.0404694
620.744	0.0417629
620.879	0.0423173
621.014	0.0418553
621.149	0.0419477
621.284	0.0418553
621.419	0.0430565
621.554	0.0412085
621.689	0.0424097
621.825	0.0409313
621.96	0.0407466
622.095	0.0416705
622.23	0.0419477
622.365	0.0410237
622.5	0.0419477
622.635	0.0425021
622.77	0.0422249
622.905	0.0425021
623.04	0.0424097
623.175	0.0419477
623.31	0.0417629
623.445	0.0407466
623.58	0.0416705
623.715	0.0400074
623.85	0.0425945
623.985	0.0411161
624.12	0.0417629
624.255	0.0420401
624.39	0.0427793
624.525	0.0422249
624.661	0.0425021
624.796	0.0417629
624.931	0.0430565
625.066	0.0421325
625.201	0.0406542
625.336	0.0416705
625.471	0.0418553
625.606	0.0418553
625.741	0.0418553
625.876	0.0397302
626.011	0.0413933
626.146	0.0416705
626.281	0.0426869
626.416	0.0411161
626.551	0.0423173
626.686	0.0407466
626.821	0.0422249
626.956	0.0421325
627.091	0.0413009
627.226	0.0417629
627.361	0.0415781
627.496	0.0416705
627.631	0.0426869
627.766	0.0418553
627.901	0.0423173
628.036	0.0426869
628.171	0.0425021
628.307	0.040839
628.442	0.0416705
628.577	0.0423173
628.712	0.0410237
628.847	0.0426869
628.982	0.0423173
629.117	0.0415781
629.252	0.0418553
629.387	0.040377
629.522	0.0420401
629.657	0.0418553
629.792	0.0411161
629.927	0.0416705
630.062	0.0427793
630.197	0.0425021
630.332	0.0409313
630.467	0.0412085
630.602	0.0425021
630.737	0.0413009
630.872	0.0413933
631.007	0.0416705
631.142	0.0400998
631.277	0.0415781
631.412	0.0425021
631.547	0.040839
631.682	0.0412085
631.817	0.0410237
631.952	0.0419477
632.087	0.0422249
632.222	0.0421325
632.357	0.0413933
632.492	0.0417629
632.627	0.0412085
632.762	0.0433336
632.897	0.0419477
633.032	0.0418553
633.167	0.0413009
633.302	0.0404694
633.437	0.0424097
633.572	0.0417629
633.707	0.0414857
633.842	0.0414857
633.978	0.0422249
634.113	0.0412085
634.248	0.0412085
634.383	0.0401922
634.518	0.0415781
634.653	0.0415781
634.788	0.0418553
634.923	0.0404694
635.058	0.0414857
635.193	0.0418553
635.328	0.0407466
635.463	0.0405618
635.598	0.0422249
635.733	0.0423173
635.868	0.0424097
636.003	0.0422249
636.138	0.0420401
636.273	0.0425945
636.408	0.0412085
636.543	0.0406542
636.678	0.0414857
636.813	0.0405618
636.948	0.0415781
637.083	0.0415781
637.218	0.0418553
637.353	0.0428717
637.488	0.0424097
637.623	0.0410237
637.758	0.0406542
637.893	0.0412085
638.028	0.0433336
638.163	0.0413933
638.298	0.0425021
638.433	0.0422249
638.568	0.0430565
638.703	0.0410237
638.838	0.0412085
638.973	0.0419477
639.108	0.0409313
639.243	0.0422249
639.378	0.0413009
639.513	0.0416705
639.648	0.0418553
639.783	0.0415781
639.918	0.0425945
640.053	0.0401922
640.188	0.0406542
640.323	0.0411161
640.458	0.0427793
640.593	0.0426869
640.728	0.0430565
640.863	0.040839
640.998	0.0426869
641.133	0.0413933
641.268	0.0410237
641.403	0.0421325
641.538	0.0429641
641.673	0.0413009
641.808	0.0420401
641.943	0.0407466
642.078	0.0413009
642.213	0.0427793
642.348	0.0404694
642.483	0.0409313
642.618	0.0419477
642.753	0.0418553
642.888	0.0414857
643.023	0.0428717
643.158	0.0414857
643.293	0.0423173
643.428	0.0405618
643.563	0.0430565
643.698	0.0430565
643.833	0.0424097
643.968	0.0415781
644.103	0.0420401
644.237	0.0401922
644.372	0.0424097
644.507	0.0414857
644.642	0.0421325
644.777	0.0412085
644.912	0.0416705
645.047	0.0421325
645.182	0.0421325
645.317	0.0410237
645.452	0.0406542
645.587	0.0432412
645.722	0.0419477
645.857	0.040377
645.992	0.0424097
646.127	0.0415781
646.262	0.0414857
646.397	0.0418553
646.532	0.0424097
646.667	0.0420401
646.802	0.0416705
646.937	0.0414857
647.072	0.0404694
647.207	0.0414857
647.342	0.0420401
647.477	0.0426869
647.612	0.0410237
647.747	0.0420401
647.882	0.0425021
648.017	0.0418553
648.152	0.0421325
648.287	0.0416705
648.422	0.0418553
648.557	0.0431488
648.692	0.0426869
648.827	0.0423173
648.962	0.0420401
649.097	0.0424097
649.232	0.0436108
649.367	0.0416705
649.502	0.0424097
649.637	0.0414857
649.772	0.0412085
649.906	0.0420401
650.041	0.0407466
650.176	0.0413009
650.311	0.0418553
650.446	0.0418553
650.581	0.0423173
650.716	0.0400074
650.851	0.0425021
650.986	0.0413009
651.121	0.0425945
651.256	0.0407466
651.391	0.040839
651.526	0.0429641
651.661	0.0411161
651.796	0.0419477
651.931	0.0413933
652.066	0.0417629
652.201	0.0427793
652.336	0.0402846
652.471	0.0411161
652.606	0.0423173
652.741	0.0421325
652.876	0.0411161
653.011	0.0413009
653.146	0.0414857
653.281	0.0416705
653.415	0.0426869
653.55	0.0420401
653.685	0.0421325
653.82	0.0410237
653.955	0.0420401
654.09	0.0418553
654.225	0.0420401
654.36	0.0420401
654.495	0.0416705
654.63	0.0423173
654.765	0.0417629
654.9	0.0423173
655.035	0.0413933
655.17	0.0416705
655.305	0.0407466
655.44	0.0414857
655.575	0.040839
655.71	0.040839
655.845	0.0413009
655.98	0.0413933
656.115	0.0409313
656.25	0.0413009
656.384	0.0418553
656.519	0.0420401
656.654	0.0424097
656.789	0.0422249
656.924	0.0410237
657.059	0.0413933
657.194	0.0418553
657.329	0.0405618
657.464	0.0407466
657.599	0.0421325
657.734	0.0422249
657.869	0.0415781
658.004	0.0413009
658.139	0.0425021
658.274	0.0412085
658.409	0.0412085
658.544	0.0414857
658.679	0.0415781
658.813	0.0417629
658.948	0.0419477
659.083	0.0411161
659.218	0.0417629
659.353	0.0416705
659.488	0.0413933
659.623	0.0427793
659.758	0.0412085
659.893	0.0430565
660.028	0.0409313
660.163	0.0421325
660.298	0.0414857
660.433	0.0405618
660.568	0.0414857
660.703	0.0430565
660.838	0.0413009
660.972	0.0410237
661.107	0.0426869
661.242	0.0423173
661.377	0.0415781
661.512	0.0420401
661.647	0.040839
661.782	0.0417629
661.917	0.0419477
662.052	0.0411161
662.187	0.0415781
662.322	0.0416705
662.457	0.0420401
662.592	0.0413933
662.727	0.0423173
662.862	0.0420401
662.996	0.0419477
663.131	0.0421325
663.266	0.0406542
663.401	0.0427793
663.536	0.0426869
663.671	0.0407466
663.806	0.0411161
663.941	0.0423173
664.076	0.0413933
664.211	0.0411161
664.346	0.0415781
664.481	0.0401922
664.616	0.0417629
664.75	0.0409313
664.885	0.0414857
665.02	0.0415781
665.155	0.0415781
665.29	0.0404694
665.425	0.0422249
665.56	0.0409313
665.695	0.0414857
665.83	0.0424097
665.965	0.0420401
666.1	0.0412085
666.235	0.0429641
666.37	0.0414857
666.504	0.0420401
666.639	0.040839
666.774	0.0424097
666.909	0.0407466
667.044	0.0425945
667.179	0.0414857
667.314	0.0416705
667.449	0.0425945
667.584	0.0431488
667.719	0.040839
667.854	0.0426869
667.989	0.0421325
668.123	0.0409313
668.258	0.0405618
668.393	0.0423173
668.528	0.0413009
668.663	0.0410237
668.798	0.0428717
668.933	0.0416705
669.068	0.0410237
669.203	0.0423173
669.338	0.0420401
669.473	0.0428717
669.607	0.0424097
669.742	0.0419477
669.877	0.0414857
670.012	0.0425021
670.147	0.0415781
670.282	0.0411161
670.417	0.0409313
670.552	0.0423173
670.687	0.0421325
670.822	0.0420401
670.957	0.0421325
671.091	0.0424097
671.226	0.0424097
671.361	0.0432412
671.496	0.0414857
671.631	0.0415781
671.766	0.0420401
671.901	0.0404694
672.036	0.0424097
672.171	0.0422249
672.306	0.0420401
672.44	0.0423173
672.575	0.040839
672.71	0.0423173
672.845	0.0426869
672.98	0.0410237
673.115	0.0415781
673.25	0.0410237
673.385	0.0430565
673.52	0.0423173
673.655	0.0418553
673.789	0.0424097
673.924	0.040839
674.059	0.0423173
674.194	0.0414857
674.329	0.0426869
674.464	0.0417629
674.599	0.040839
674.734	0.0401922
674.869	0.0416705
675.003	0.0420401
675.138	0.0413933
675.273	0.0407466
675.408	0.0417629
675.543	0.0413933
675.678	0.0437956
675.813	0.0416705
675.948	0.0423173
676.083	0.0413009
676.217	0.0426869
676.352	0.0420401
676.487	0.0413933
676.622	0.0402846
676.757	0.0423173
676.892	0.0416705
677.027	0.0415781
677.162	0.0422249
677.297	0.0411161
677.431	0.0431488
677.566	0.0413933
677.701	0.0411161
677.836	0.0416705
677.971	0.0406542
678.106	0.0426869
678.241	0.0414857
678.376	0.0422249
678.511	0.0425021
678.645	0.0420401
678.78	0.0404694
678.915	0.0422249
679.05	0.0414857
679.185	0.0412085
679.32	0.0417629
679.455	0.0410237
679.59	0.0407466
679.724	0.0411161
679.859	0.0414857
679.994	0.0426869
680.129	0.0413009
680.264	0.0417629
680.399	0.0415781
680.534	0.0422249
680.669	0.0426869
680.803	0.0432412
680.938	0.0412085
681.073	0.0413933
681.208	0.0422249
681.343	0.0419477
681.478	0.0423173
681.613	0.0415781
681.748	0.0430565
681.882	0.0421325
682.017	0.0425021
682.152	0.0426869
682.287	0.0407466
682.422	0.0422249
682.557	0.0418553
682.692	0.0416705
682.827	0.0416705
682.961	0.0423173
683.096	0.0413009
683.231	0.0420401
683.366	0.0409313
683.501	0.0418553
683.636	0.0414857
683.771	0.0406542
683.906	0.0421325
684.04	0.0412085
684.175	0.0421325
684.31	0.0432412
684.445	0.0416705
684.58	0.0424097
684.715	0.0416705
684.85	0.0413009
684.984	0.0417629
685.119	0.0427793
685.254	0.0417629
685.389	0.0411161
685.524	0.0429641
685.659	0.0413933
685.794	0.0407466
685.928	0.0420401
686.063	0.0422249
686.198	0.0418553
686.333	0.0416705
686.468	0.0419477
686.603	0.0423173
686.738	0.0410237
686.872	0.0401922
687.007	0.0413009
687.142	0.0418553
687.277	0.0414857
687.412	0.040839
687.547	0.0428717
687.682	0.0421325
687.816	0.0423173
687.951	0.0414857
688.086	0.0417629
688.221	0.0416705
688.356	0.0412085
688.491	0.0415781
688.626	0.0412085
688.76	0.0406542
688.895	0.0429641
689.03	0.0421325
689.165	0.0419477
689.3	0.0427793
689.435	0.0423173
689.57	0.0410237
689.704	0.040839
689.839	0.0416705
689.974	0.0418553
690.109	0.0415781
690.244	0.0426869
690.379	0.040839
690.513	0.0433336
690.648	0.0423173
690.783	0.0413933
690.918	0.0420401
691.053	0.0426869
691.188	0.040839
691.323	0.0412085
691.457	0.0418553
691.592	0.0417629
691.727	0.0423173
691.862	0.0414857
691.997	0.0431488
692.132	0.0431488
692.266	0.0416705
692.401	0.0412085
692.536	0.0410237
692.671	0.0424097
692.806	0.0413009
692.941	0.0404694
693.075	0.0428717
693.21	0.0413009
693.345	0.0416705
693.48	0.0421325
693.615	0.040377
693.75	0.0413933
693.885	0.0414857
694.019	0.0422249
694.154	0.0418553
694.289	0.0413009
694.424	0.0424097
694.559	0.0421325
694.694	0.0416705
694.828	0.0412085
694.963	0.0433336
695.098	0.0415781
695.233	0.0410237
695.368	0.0414857
695.503	0.0428717
695.637	0.0414857
695.772	0.0409313
695.907	0.040839
696.042	0.0422249
696.177	0.0427793
696.312	0.0404694
696.446	0.0417629
696.581	0.0428717
696.716	0.0428717
696.851	0.0424097
696.986	0.0414857
697.12	0.0426869
697.255	0.0413933
697.39	0.0409313
697.525	0.0418553
697.66	0.0406542
697.795	0.0417629
697.929	0.0407466
698.064	0.0423173
698.199	0.0417629
698.334	0.0416705
698.469	0.0425945
698.604	0.0414857
698.738	0.0422249
698.873	0.0410237
699.008	0.0426869
699.143	0.0421325
699.278	0.0409313
699.412	0.0425021
699.547	0.0425021
699.682	0.0398226
699.817	0.0409313
699.952	0.0415781
700.087	0.0413009
700.221	0.0427793
700.356	0.0419477
700.491	0.0404694
700.626	0.0421325
700.761	0.0422249
700.895	0.0400998
701.03	0.0419477
701.165	0.0417629
701.3	0.0423173
701.435	0.0415781
701.57	0.0413933
701.704	0.0410237
701.839	0.0413009
701.974	0.0411161
702.109	0.0413009
702.244	0.0416705
702.378	0.0422249
702.513	0.0417629
702.648	0.0422249
702.783	0.0413009
702.918	0.0407466
703.052	0.0417629
703.187	0.0425021
703.322	0.0422249
703.457	0.0417629
703.592	0.0413009
703.727	0.0426869
703.861	0.0418553
703.996	0.0400074
704.131	0.0415781
704.266	0.0430565
704.401	0.0431488
704.535	0.0421325
704.67	0.0415781
704.805	0.0421325
704.94	0.0412085
705.075	0.0414857
705.209	0.0424097
705.344	0.0415781
705.479	0.0417629
705.614	0.0409313
705.749	0.0410237
705.883	0.0414857
706.018	0.0407466
706.153	0.0418553
706.288	0.0413009
706.423	0.0418553
706.557	0.0424097
706.692	0.0428717
706.827	0.0423173
706.962	0.0426869
707.097	0.0415781
707.231	0.0418553
707.366	0.0418553
707.501	0.0425945
707.636	0.0430565
707.771	0.0420401
707.905	0.0427793
708.04	0.0427793
708.175	0.0426869
708.31	0.043426
708.445	0.0409313
708.579	0.0413933
708.714	0.0401922
708.849	0.0415781
708.984	0.0415781
709.118	0.0422249
709.253	0.0425945
709.388	0.0415781
709.523	0.0418553
709.658	0.0422249
709.792	0.0415781
709.927	0.0419477
710.062	0.0413933
710.197	0.0418553
710.332	0.0410237
710.466	0.0418553
710.601	0.0416705
710.736	0.0402846
710.871	0.0420401
711.006	0.0416705
711.14	0.0413933
711.275	0.0413009
711.41	0.0416705
711.545	0.0411161
711.679	0.0427793
711.814	0.0413933
711.949	0.0431488
712.084	0.0427793
712.219	0.0424097
712.353	0.0422249
712.488	0.0417629
712.623	0.0421325
712.758	0.0423173
712.892	0.0431488
713.027	0.0417629
713.162	0.0416705
713.297	0.0420401
713.432	0.0413009
713.566	0.0401922
713.701	0.0415781
713.836	0.0416705
713.971	0.0411161
714.105	0.0419477
714.24	0.0407466
714.375	0.0417629
714.51	0.0422249
714.645	0.0419477
714.779	0.0423173
714.914	0.0410237
715.049	0.0415781
715.184	0.0420401
715.318	0.0413009
715.453	0.0409313
715.588	0.0420401
715.723	0.0425021
715.858	0.0415781
715.992	0.0407466
716.127	0.040839
716.262	0.0416705
716.397	0.0415781
716.531	0.0405618
716.666	0.0415781
716.801	0.0412085
716.936	0.0412085
717.07	0.0414857
717.205	0.0400998
717.34	0.0427793
717.475	0.0415781
717.61	0.0420401
717.744	0.0415781
717.879	0.0412085
718.014	0.0413009
718.149	0.0413933
718.283	0.0413933
718.418	0.0421325
718.553	0.0420401
718.688	0.0414857
718.822	0.0426869
718.957	0.0418553
719.092	0.0406542
719.227	0.040839
719.361	0.0402846
719.496	0.0412085
719.631	0.0414857
719.766	0.0396378
719.9	0.0414857
720.035	0.0423173
720.17	0.0424097
720.305	0.0420401
720.44	0.0412085
720.574	0.040839
720.709	0.0421325
720.844	0.0405618
720.979	0.0425021
721.113	0.0406542
721.248	0.0419477
721.383	0.0424097
721.518	0.0427793
721.652	0.0413009
721.787	0.0415781
721.922	0.0414857
722.057	0.0409313
722.191	0.0412085
722.326	0.0412085
722.461	0.0428717
722.596	0.0409313
722.73	0.0420401
722.865	0.0418553
723	0.0417629
723.135	0.0404694
723.269	0.0411161
723.404	0.0409313
723.539	0.0419477
723.674	0.0406542
723.808	0.0428717
723.943	0.0413933
724.078	0.0413933
724.213	0.0422249
724.347	0.0420401
724.482	0.0425945
724.617	0.0415781
724.752	0.0425945
724.886	0.0413933
725.021	0.0413009
725.156	0.0417629
725.291	0.0423173
725.425	0.0419477
725.56	0.0413933
725.695	0.0410237
725.829	0.0417629
725.964	0.0424097
726.099	0.0416705
726.234	0.0417629
726.368	0.0421325
726.503	0.0416705
726.638	0.0413933
726.773	0.0420401
726.907	0.0413933
727.042	0.0413933
727.177	0.0425945
727.312	0.040377
727.446	0.0416705
727.581	0.0411161
727.716	0.0412085
727.851	0.0423173
727.985	0.0418553
728.12	0.0425945
728.255	0.0422249
728.389	0.0416705
728.524	0.0415781
728.659	0.0412085
728.794	0.0411161
728.928	0.0406542
729.063	0.040839
729.198	0.0413009
729.333	0.0422249
729.467	0.0407466
729.602	0.0430565
729.737	0.0424097
729.872	0.0404694
730.006	0.0419477
730.141	0.0412085
730.276	0.0425021
730.41	0.0409313
730.545	0.0402846
730.68	0.0413009
730.815	0.0413933
730.949	0.0421325
731.084	0.0421325
731.219	0.0420401
731.354	0.0419477
731.488	0.0418553
731.623	0.0420401
731.758	0.0400998
731.892	0.0424097
732.027	0.0411161
732.162	0.0404694
732.297	0.0413009
732.431	0.0425945
732.566	0.0411161
732.701	0.0407466
732.835	0.0412085
732.97	0.0412085
733.105	0.0421325
733.24	0.040839
733.374	0.0420401
733.509	0.0418553
733.644	0.0413933
733.779	0.0419477
733.913	0.0411161
734.048	0.0413933
734.183	0.0409313
734.317	0.0424097
734.452	0.0418553
734.587	0.0418553
734.722	0.0425945
734.856	0.040377
734.991	0.0425021
735.126	0.0421325
735.26	0.0410237
735.395	0.0411161
735.53	0.0419477
735.665	0.0414857
735.799	0.0411161
735.934	0.0421325
736.069	0.0418553
736.203	0.0420401
736.338	0.0416705
736.473	0.0419477
736.607	0.0404694
736.742	0.0429641
736.877	0.0411161
737.012	0.0428717
737.146	0.0424097
737.281	0.0419477
737.416	0.0420401
737.55	0.0414857
737.685	0.0419477
737.82	0.0420401
737.955	0.0437032
738.089	0.0405618
738.224	0.0417629
738.359	0.0409313
738.493	0.0412085
738.628	0.0423173
738.763	0.0416705
738.897	0.0425021
739.032	0.0419477
739.167	0.0419477
739.302	0.0422249
739.436	0.0424097
739.571	0.0413933
739.706	0.0418553
739.84	0.0416705
739.975	0.0437032
740.11	0.0417629
740.244	0.0405618
740.379	0.0417629
740.514	0.0405618
740.649	0.0420401
740.783	0.040377
740.918	0.0414857
741.053	0.0424097
741.187	0.0406542
741.322	0.0413933
741.457	0.0415781
741.591	0.0407466
741.726	0.0419477
741.861	0.0423173
741.996	0.0424097
742.13	0.0414857
742.265	0.0420401
742.4	0.0404694
742.534	0.0413933
742.669	0.0423173
742.804	0.0410237
742.938	0.0406542
743.073	0.0407466
743.208	0.0424097
743.342	0.0423173
743.477	0.0423173
743.612	0.0415781
743.747	0.0405618
743.881	0.0419477
744.016	0.0405618
744.151	0.0413933
744.285	0.0423173
744.42	0.0420401
744.555	0.0405618
744.689	0.0436108
744.824	0.0406542
744.959	0.0413933
745.093	0.0424097
745.228	0.0416705
745.363	0.0413933
745.497	0.040839
745.632	0.0426869
745.767	0.0414857
745.901	0.0426869
746.036	0.0414857
746.171	0.0412085
746.305	0.0410237
746.44	0.0415781
746.575	0.0421325
746.71	0.0409313
746.844	0.0415781
746.979	0.0414857
747.114	0.0415781
747.248	0.0405618
747.383	0.0421325
747.518	0.040839
747.652	0.0411161
747.787	0.0419477
747.922	0.0419477
748.056	0.0411161
748.191	0.0423173
748.326	0.0419477
748.46	0.0414857
748.595	0.0416705
748.73	0.0417629
748.864	0.0423173
748.999	0.0412085
749.134	0.0425945
749.268	0.0437032
749.403	0.0415781
749.538	0.0422249
749.672	0.0413933
749.807	0.040839
749.942	0.0413009
750.076	0.0402846
750.211	0.0423173
750.346	0.0421325
750.48	0.0413933
750.615	0.0418553
750.75	0.0413933
750.884	0.0407466
751.019	0.0412085
751.154	0.0417629
751.288	0.0413933
751.423	0.0417629
751.558	0.0414857
751.692	0.0415781
751.827	0.0407466
751.962	0.0410237
752.096	0.0416705
752.231	0.0417629
752.366	0.0420401
752.5	0.0417629
752.635	0.0413933
752.77	0.0419477
752.904	0.0412085
753.039	0.0419477
753.174	0.0425021
753.308	0.0414857
753.443	0.0413933
753.578	0.0413933
753.712	0.0413009
753.847	0.0413933
753.982	0.0423173
754.116	0.0419477
754.251	0.0414857
754.386	0.0419477
754.52	0.039915
754.655	0.0417629
754.79	0.0415781
754.924	0.040839
755.059	0.0412085
755.194	0.0426869
755.328	0.0419477
755.463	0.0417629
755.597	0.0417629
755.732	0.0413933
755.867	0.0415781
756.001	0.0410237
756.136	0.0426869
756.271	0.0413933
756.405	0.0406542
756.54	0.0421325
756.675	0.0409313
756.809	0.0431488
756.944	0.0413009
757.079	0.0416705
757.213	0.0423173
757.348	0.0417629
757.483	0.0426869
757.617	0.0414857
757.752	0.0427793
757.887	0.0412085
758.021	0.0412085
758.156	0.0417629
758.29	0.0423173
758.425	0.0418553
758.56	0.0417629
758.694	0.0427793
758.829	0.0409313
758.964	0.0421325
759.098	0.0414857
759.233	0.0413933
759.368	0.0413009
759.502	0.0416705
759.637	0.0421325
759.772	0.0430565
759.906	0.0418553
760.041	0.0428717
760.175	0.0421325
760.31	0.0427793
760.445	0.0422249
760.579	0.0424097
760.714	0.0426869
760.849	0.0416705
760.983	0.0413933
761.118	0.0425945
761.253	0.0421325
761.387	0.0410237
761.522	0.0395454
761.656	0.0415781
761.791	0.0429641
761.926	0.0425021
762.06	0.0396378
762.195	0.0418553
762.33	0.0413933
762.464	0.0413933
762.599	0.0424097
762.733	0.0419477
762.868	0.0411161
763.003	0.0418553
763.137	0.0421325
763.272	0.0417629
763.407	0.040839
763.541	0.0413933
763.676	0.0423173
763.811	0.0429641
763.945	0.0412085
764.08	0.0413009
764.214	0.0407466
764.349	0.0428717
764.484	0.040839
764.618	0.0420401
764.753	0.0400998
764.888	0.0419477
765.022	0.0413933
765.157	0.0429641
765.291	0.0416705
765.426	0.0420401
765.561	0.0418553
765.695	0.0430565
765.83	0.0417629
765.965	0.0422249
766.099	0.0432412
766.234	0.0421325
766.368	0.0413009
766.503	0.0420401
766.638	0.0425945
766.772	0.0413009
766.907	0.0419477
767.041	0.0417629
767.176	0.0413933
767.311	0.0414857
767.445	0.0419477
767.58	0.0422249
767.715	0.0420401
767.849	0.0420401
767.984	0.0419477
768.118	0.0418553
768.253	0.0411161
768.388	0.0417629
768.522	0.0406542
768.657	0.0414857
768.791	0.0409313
768.926	0.0410237
769.061	0.0417629
769.195	0.0424097
769.33	0.0411161
769.465	0.040839
769.599	0.0413009
769.734	0.0415781
769.868	0.040839
770.003	0.0416705
770.138	0.0421325
770.272	0.0419477
770.407	0.0421325
770.541	0.0418553
770.676	0.040839
770.811	0.0418553
770.945	0.0415781
771.08	0.0430565
771.214	0.0413009
771.349	0.0425945
771.484	0.0411161
771.618	0.0417629
771.753	0.0422249
771.887	0.0420401
772.022	0.0430565
772.157	0.0421325
772.291	0.0436108
772.426	0.0424097
772.56	0.0418553
772.695	0.0414857
772.83	0.0426869
772.964	0.0422249
773.099	0.0424097
773.233	0.0421325
773.368	0.0416705
773.503	0.0409313
773.637	0.0424097
773.772	0.0415781
773.906	0.0426869
774.041	0.0413009
774.176	0.040839
774.31	0.0412085
774.445	0.0406542
774.579	0.0418553
774.714	0.0420401
774.849	0.040839
774.983	0.0416705
775.118	0.0412085
775.252	0.0422249
775.387	0.0420401
775.522	0.0412085
775.656	0.0416705
775.791	0.0410237
775.925	0.0423173
776.06	0.0429641
776.195	0.0416705
776.329	0.0428717
776.464	0.0424097
776.598	0.0420401
776.733	0.0413009
776.868	0.0415781
777.002	0.0424097
777.137	0.0421325
777.271	0.0415781
777.406	0.0413009
777.54	0.0406542
777.675	0.0414857
777.81	0.0414857
777.944	0.0435184
778.079	0.0409313
778.213	0.0425021
778.348	0.0413933
778.483	0.0413009
778.617	0.0418553
778.752	0.0418553
778.886	0.0421325
779.021	0.0427793
779.155	0.0415781
779.29	0.0420401
779.425	0.0422249
779.559	0.040377
779.694	0.0417629
779.828	0.0418553
779.963	0.0416705
780.098	0.0401922
780.232	0.0410237
780.367	0.0427793
780.501	0.0418553
780.636	0.0419477
780.77	0.040839
780.905	0.0409313
781.04	0.0413933
781.174	0.0420401
781.309	0.0419477
781.443	0.0404694
781.578	0.0413933
781.712	0.0414857
781.847	0.0420401
781.982	0.0427793
782.116	0.0429641
782.251	0.0424097
782.385	0.0424097
782.52	0.040839
782.654	0.0425021
782.789	0.0416705
782.924	0.0420401
783.058	0.0412085
783.193	0.0426869
783.327	0.0411161
783.462	0.0417629
783.596	0.0416705
783.731	0.043426
783.866	0.0427793
784	0.0422249
784.135	0.0410237
784.269	0.0419477
784.404	0.0415781
784.538	0.0412085
784.673	0.0412085
784.808	0.0425945
784.942	0.0417629
785.077	0.0413009
785.211	0.0425945
785.346	0.0421325
785.48	0.0425945
785.615	0.0410237
785.75	0.0414857
785.884	0.0415781
786.019	0.040839
786.153	0.0416705
786.288	0.0425945
786.422	0.0425945
786.557	0.040377
786.691	0.0407466
786.826	0.0420401
786.961	0.0417629
787.095	0.0424097
787.23	0.0416705
787.364	0.0428717
787.499	0.0416705
787.633	0.0416705
787.768	0.0422249
787.902	0.0412085
788.037	0.0414857
788.172	0.0427793
788.306	0.0427793
788.441	0.0412085
788.575	0.0413009
788.71	0.0418553
788.844	0.0426869
788.979	0.0423173
789.113	0.0413009
789.248	0.0413009
789.383	0.0417629
789.517	0.0421325
789.652	0.0419477
789.786	0.0413933
789.921	0.0418553
790.055	0.0431488
790.19	0.0412085
790.324	0.0412085
790.459	0.0410237
790.594	0.0420401
790.728	0.0423173
790.863	0.0409313
790.997	0.0419477
791.132	0.0412085
791.266	0.0414857
791.401	0.0407466
791.535	0.0423173
791.67	0.040839
791.804	0.0425021
791.939	0.0420401
792.074	0.0425021
792.208	0.0406542
792.343	0.0413933
792.477	0.039453
792.612	0.0411161
792.746	0.0407466
792.881	0.0425945
793.015	0.0402846
793.15	0.0421325
793.284	0.0429641
793.419	0.0417629
793.553	0.0415781
793.688	0.0422249
793.823	0.0409313
793.957	0.0427793
794.092	0.0421325
794.226	0.0416705
794.361	0.0414857
794.495	0.0427793
794.63	0.0423173
794.764	0.0415781
794.899	0.0413933
795.033	0.0418553
795.168	0.0423173
795.302	0.0431488
795.437	0.0428717
795.572	0.0424097
795.706	0.0415781
795.841	0.0423173
795.975	0.0412085
796.11	0.0435184
796.244	0.0425021
796.379	0.0419477
796.513	0.0417629
796.648	0.0425945
796.782	0.0413933
796.917	0.0424097
797.051	0.0437956
797.186	0.0410237
797.32	0.0418553
797.455	0.0411161
797.589	0.0429641
797.724	0.0409313
797.859	0.0429641
797.993	0.0418553
798.128	0.0412085
798.262	0.0426869
798.397	0.0420401
798.531	0.0420401
798.666	0.0422249
798.8	0.0416705
798.935	0.0417629
799.069	0.0418553
799.204	0.0401922
799.338	0.0420401
799.473	0.0406542
799.607	0.0429641
799.742	0.0415781
799.876	0.0427793
800.011	0.0422249
800.145	0.0413009
800.28	0.0401922
800.414	0.0424097
800.549	0.0420401
800.683	0.0431488
800.818	0.0424097
800.953	0.0428717
801.087	0.0413933
801.222	0.0426869
801.356	0.0417629
801.491	0.0425945
801.625	0.0416705
801.76	0.0425945
801.894	0.0413933
802.029	0.0420401
802.163	0.0433336
802.298	0.0430565
802.432	0.0416705
802.567	0.0427793
802.701	0.0425021
802.836	0.0426869
802.97	0.0418553
803.105	0.0416705
803.239	0.0437956
803.374	0.0420401
803.508	0.0409313
803.643	0.0419477
803.777	0.0431488
803.912	0.0424097
804.046	0.0427793
804.181	0.0429641
804.315	0.0429641
804.45	0.0436108
804.584	0.0422249
804.719	0.0415781
804.853	0.0425945
804.988	0.0442576
805.122	0.043888
805.257	0.0422249
805.391	0.0425021
805.526	0.0430565
805.66	0.0429641
805.795	0.0426869
805.929	0.0433336
806.064	0.0441652
806.198	0.0451816
806.333	0.0446272
806.467	0.0451816
806.602	0.0456435
806.736	0.0466599
806.871	0.0450892
807.005	0.0463827
807.14	0.0462903
807.274	0.0457359
807.409	0.0470295
807.543	0.0458283
807.678	0.0477686
807.812	0.0485078
807.947	0.0474915
808.081	0.0495242
808.216	0.0489698
808.35	0.0519265
808.485	0.0545135
808.619	0.0538668
808.754	0.0614432
808.888	0.0723459
809.023	0.0897163
809.157	0.111799
809.292	0.133604
809.426	0.245034
809.561	0.496997
809.695	0.704703
809.83	0.78712
809.964	0.849949
810.099	0.683082
810.233	0.639471
810.368	1
810.502	0.976162
810.637	0.687425
810.771	0.412455
810.906	0.2661
811.04	0.201146
811.175	0.384367
811.309	0.593643
811.444	0.283286
811.578	0.0888848
811.713	0.0523884
811.847	0.048323
811.982	0.048785
812.116	0.0477686
812.251	0.0473991
812.385	0.0463827
812.519	0.0459207
812.654	0.0449044
812.788	0.045274
812.923	0.0445348
813.057	0.044812
813.192	0.045274
813.326	0.044812
813.461	0.0447196
813.595	0.0431488
813.73	0.0433336
813.864	0.0422249
813.999	0.0432412
814.133	0.0426869
814.268	0.0419477
814.402	0.0436108
814.537	0.0427793
814.671	0.0421325
814.806	0.0432412
814.94	0.0421325
815.075	0.0437032
815.209	0.0421325
815.344	0.0425945
815.478	0.0421325
815.612	0.0419477
815.747	0.0424097
815.881	0.0425945
816.016	0.0419477
816.15	0.0413933
816.285	0.0422249
816.419	0.0422249
816.554	0.0421325
816.688	0.0425945
816.823	0.0420401
816.957	0.0420401
817.092	0.0427793
817.226	0.039453
817.361	0.0421325
817.495	0.0420401
817.63	0.0421325
817.764	0.0429641
817.898	0.0422249
818.033	0.0429641
818.167	0.0419477
818.302	0.0415781
818.436	0.0425021
818.571	0.0422249
818.705	0.0421325
818.84	0.0433336
818.974	0.0414857
819.109	0.0425945
819.243	0.0415781
819.378	0.0415781
819.512	0.0432412
819.646	0.0422249
819.781	0.0401922
819.915	0.0417629
820.05	0.0421325
820.184	0.0416705
820.319	0.0417629
820.453	0.0422249
820.588	0.0414857
820.722	0.0418553
820.857	0.0432412
820.991	0.0419477
821.126	0.0413933
821.26	0.0416705
821.394	0.0413009
821.529	0.0422249
821.663	0.0418553
821.798	0.0413009
821.932	0.0417629
822.067	0.0422249
822.201	0.0433336
822.336	0.0418553
822.47	0.0423173
822.605	0.0427793
822.739	0.0421325
822.873	0.0415781
823.008	0.0413009
823.142	0.0413009
823.277	0.0413009
823.411	0.0417629
823.546	0.0414857
823.68	0.0418553
823.815	0.0420401
823.949	0.0410237
824.083	0.0413933
824.218	0.0413933
824.352	0.0412085
824.487	0.0413009
824.621	0.0415781
824.756	0.0423173
824.89	0.0424097
825.025	0.0415781
825.159	0.0404694
825.293	0.0418553
825.428	0.0427793
825.562	0.0412085
825.697	0.0428717
825.831	0.0413009
825.966	0.0418553
826.1	0.0415781
826.235	0.0422249
826.369	0.0425021
826.503	0.0417629
826.638	0.0416705
826.772	0.0433336
826.907	0.0424097
827.041	0.0411161
827.176	0.0422249
827.31	0.0416705
827.445	0.0406542
827.579	0.0429641
827.713	0.0413933
827.848	0.0416705
827.982	0.0412085
828.117	0.040377
828.251	0.0409313
828.386	0.0420401
828.52	0.0414857
828.654	0.0418553
828.789	0.0407466
828.923	0.0423173
829.058	0.0405618
829.192	0.0410237
829.327	0.0413933
829.461	0.0413009
829.596	0.0417629
829.73	0.0413009
829.864	0.0405618
829.999	0.040377
830.133	0.0410237
830.268	0.0420401
830.402	0.040839
830.537	0.0407466
830.671	0.0425021
830.805	0.0428717
830.94	0.0425021
831.074	0.0409313
831.209	0.0425945
831.343	0.0413009
831.478	0.0404694
831.612	0.0415781
831.746	0.0404694
831.881	0.0422249
832.015	0.0423173
832.15	0.0413009
832.284	0.0430565
832.418	0.040377
832.553	0.0425945
832.687	0.0417629
832.822	0.0417629
832.956	0.0414857
833.091	0.0407466
833.225	0.0416705
833.359	0.0425945
833.494	0.0417629
833.628	0.0417629
833.763	0.0413933
833.897	0.0424097
834.032	0.0426869
834.166	0.0435184
834.3	0.0420401
834.435	0.0411161
834.569	0.0415781
834.704	0.0419477
834.838	0.0413933
834.972	0.0404694
835.107	0.0420401
835.241	0.0420401
835.376	0.0415781
835.51	0.0407466
835.645	0.0425021
835.779	0.0411161
835.913	0.0419477
836.048	0.0425945
836.182	0.0415781
836.317	0.0413009
836.451	0.0421325
836.585	0.0421325
836.72	0.0411161
836.854	0.0419477
836.989	0.0405618
837.123	0.0422249
837.257	0.0419477
837.392	0.0427793
837.526	0.0407466
837.661	0.0412085
837.795	0.0423173
837.929	0.0413933
838.064	0.0407466
838.198	0.0416705
838.333	0.0417629
838.467	0.0409313
838.602	0.0416705
838.736	0.040377
838.87	0.0415781
839.005	0.0415781
839.139	0.0419477
839.274	0.040839
839.408	0.0427793
839.542	0.0423173
839.677	0.0406542
839.811	0.0416705
839.946	0.0423173
840.08	0.040839
840.214	0.0407466
840.349	0.0431488
840.483	0.0418553
840.618	0.0425021
840.752	0.0402846
840.886	0.0431488
841.021	0.0421325
841.155	0.0412085
841.29	0.0413009
841.424	0.0415781
841.558	0.0412085
841.693	0.0414857
841.827	0.0424097
841.961	0.0423173
842.096	0.0427793
842.23	0.0413009
842.365	0.0429641
842.499	0.0422249
842.633	0.0416705
842.768	0.040839
842.902	0.0417629
843.037	0.0412085
843.171	0.0425021
843.305	0.0415781
843.44	0.0417629
843.574	0.0413009
843.709	0.0428717
843.843	0.0414857
843.977	0.0421325
844.112	0.0417629
844.246	0.0425945
844.381	0.0413933
844.515	0.0414857
844.649	0.0412085
844.784	0.0418553
844.918	0.0417629
845.052	0.0419477
845.187	0.0414857
845.321	0.0420401
845.456	0.0412085
845.59	0.0429641
845.724	0.0415781
845.859	0.0426869
845.993	0.0412085
846.128	0.0416705
846.262	0.0410237
846.396	0.040839
846.531	0.0416705
846.665	0.0424097
846.799	0.0423173
846.934	0.0415781
847.068	0.0412085
847.203	0.0411161
847.337	0.0413009
847.471	0.0425945
847.606	0.0391758
847.74	0.0413009
847.874	0.0417629
848.009	0.0430565
848.143	0.0402846
848.278	0.0418553
848.412	0.0411161
848.546	0.0417629
848.681	0.0426869
848.815	0.0415781
848.949	0.0427793
849.084	0.0417629
849.218	0.0406542
849.353	0.0413933
849.487	0.0413009
849.621	0.0413009
849.756	0.0421325
849.89	0.0423173
850.024	0.0420401
850.159	0.0416705
850.293	0.0421325
850.428	0.0417629
850.562	0.0419477
850.696	0.0419477
850.831	0.0419477
850.965	0.0405618
851.099	0.0416705
851.234	0.0410237
851.368	0.0420401
851.502	0.0420401
851.637	0.0410237
851.771	0.0417629
851.906	0.0416705
852.04	0.0413009
852.174	0.0417629
852.309	0.0423173
852.443	0.039453
852.577	0.0421325
852.712	0.0411161
852.846	0.0410237
852.98	0.0415781
853.115	0.0419477
853.249	0.0422249
853.384	0.0414857
853.518	0.0417629
853.652	0.0425945
853.787	0.0415781
853.921	0.0417629
854.055	0.0419477
854.19	0.0419477
854.324	0.0425021
854.458	0.0420401
854.593	0.0410237
854.727	0.0414857
854.861	0.0410237
854.996	0.0423173
855.13	0.0422249
855.265	0.0413009
855.399	0.040839
855.533	0.0416705
855.668	0.0412085
855.802	0.0430565
855.936	0.0422249
856.071	0.0418553
856.205	0.0420401
856.339	0.0414857
856.474	0.0425021
856.608	0.0415781
856.742	0.0420401
856.877	0.0423173
857.011	0.0416705
857.145	0.0425021
857.28	0.0413009
857.414	0.0411161
857.549	0.0412085
857.683	0.0412085
857.817	0.0419477
857.952	0.0413009
858.086	0.0407466
858.22	0.0400998
858.355	0.0418553
858.489	0.0405618
858.623	0.0420401
858.758	0.0412085
858.892	0.0415781
859.026	0.0418553
859.161	0.0418553
859.295	0.0416705
859.429	0.0421325
859.564	0.0418553
859.698	0.0427793
859.832	0.0430565
859.967	0.0406542
860.101	0.0422249
860.235	0.0398226
860.37	0.040839
860.504	0.0413009
860.638	0.0419477
860.773	0.0415781
860.907	0.0416705
861.041	0.0413009
861.176	0.0420401
861.31	0.0411161
861.444	0.0423173
861.579	0.040839
861.713	0.0419477
861.847	0.040377
861.982	0.0420401
862.116	0.0413009
862.25	0.0414857
862.385	0.0416705
862.519	0.0425021
862.653	0.0425021
862.788	0.0419477
862.922	0.0416705
863.056	0.0420401
863.191	0.0407466
863.325	0.0416705
863.459	0.0407466
863.594	0.0417629
863.728	0.0429641
863.862	0.0402846
863.997	0.0409313
864.131	0.0413933
864.265	0.0433336
864.4	0.0407466
864.534	0.0423173
864.668	0.0412085
864.803	0.0425021
864.937	0.0424097
865.071	0.0400998
865.206	0.0425021
865.34	0.0430565
865.474	0.040839
865.609	0.0411161
865.743	0.0420401
865.877	0.0418553
866.012	0.0424097
866.146	0.0415781
866.28	0.0424097
866.415	0.0412085
866.549	0.0419477
866.683	0.0407466
866.818	0.0417629
866.952	0.0414857
867.086	0.0413933
867.221	0.0418553
867.355	0.040377
867.489	0.0421325
867.623	0.0412085
867.758	0.0418553
867.892	0.0420401
868.026	0.0413933
868.161	0.0412085
868.295	0.0404694
868.429	0.0413009
868.564	0.0420401
868.698	0.0419477
868.832	0.0412085
868.967	0.0420401
869.101	0.0415781
869.235	0.0421325
869.37	0.0418553
869.504	0.0409313
869.638	0.0424097
869.773	0.0417629
869.907	0.0428717
870.041	0.0431488
870.175	0.0411161
870.31	0.0413009
870.444	0.0417629
870.578	0.0429641
870.713	0.0418553
870.847	0.0416705
870.981	0.0411161
871.116	0.0423173
871.25	0.0416705
871.384	0.0416705
871.519	0.0406542
871.653	0.0416705
871.787	0.0425021
871.921	0.0425021
872.056	0.0413009
872.19	0.0422249
872.324	0.0419477
872.459	0.0417629
872.593	0.0419477
872.727	0.0415781
872.862	0.0415781
872.996	0.0419477
873.13	0.0413009
873.264	0.0425945
873.399	0.0430565
873.533	0.0422249
873.667	0.0421325
873.802	0.0416705
873.936	0.0432412
874.07	0.0415781
874.205	0.0419477
874.339	0.0423173
874.473	0.0410237
874.607	0.0400074
874.742	0.0414857
874.876	0.0430565
875.01	0.0413933
875.145	0.0425945
875.279	0.0430565
875.413	0.0416705
875.548	0.0419477
875.682	0.0425945
875.816	0.0409313
875.95	0.0412085
876.085	0.0412085
876.219	0.0406542
876.353	0.0393606
876.488	0.0425945
876.622	0.0412085
876.756	0.0413009
876.89	0.0416705
877.025	0.0416705
877.159	0.0424097
877.293	0.0425945
877.428	0.0423173
877.562	0.0430565
877.696	0.0414857
877.83	0.0418553
877.965	0.0414857
878.099	0.0423173
878.233	0.0418553
878.368	0.0426869
878.502	0.0413009
878.636	0.0421325
878.77	0.0414857
878.905	0.0431488
879.039	0.0412085
879.173	0.0423173
879.308	0.0419477
879.442	0.0411161
879.576	0.0412085
879.71	0.0422249
879.845	0.0413009
879.979	0.040377
880.113	0.0428717
880.248	0.0417629
880.382	0.0422249
880.516	0.0419477
880.65	0.0418553
880.785	0.0427793
880.919	0.0414857
881.053	0.0423173
881.188	0.0416705
881.322	0.0412085
881.456	0.0410237
881.59	0.0409313
881.725	0.0406542
881.859	0.039453
881.993	0.0415781
882.127	0.0411161
882.262	0.0417629
882.396	0.0431488
882.53	0.0426869
882.665	0.040839
882.799	0.0413009
882.933	0.0416705
883.067	0.0417629
883.202	0.0416705
883.336	0.0423173
883.47	0.0425021
883.604	0.0424097
883.739	0.0419477
883.873	0.0413009
884.007	0.0416705
884.142	0.0417629
884.276	0.0423173
884.41	0.0421325
884.544	0.0417629
884.679	0.0421325
884.813	0.040839
884.947	0.0427793
885.081	0.0430565
885.216	0.0413009
885.35	0.0427793
885.484	0.0425945
885.618	0.0424097
885.753	0.0414857
885.887	0.0412085
886.021	0.0421325
886.155	0.0407466
886.29	0.0417629
886.424	0.0426869
886.558	0.0412085
886.693	0.0409313
886.827	0.0412085
886.961	0.0425945
887.095	0.0427793
887.23	0.0424097
887.364	0.0416705
887.498	0.0426869
887.632	0.0433336
887.767	0.0410237
887.901	0.0413009
888.035	0.0423173
888.169	0.0415781
888.304	0.0424097
888.438	0.0406542
888.572	0.0420401
888.706	0.0411161
888.841	0.0421325
888.975	0.0420401
889.109	0.0405618
889.243	0.0418553
889.378	0.0420401
889.512	0.0409313
889.646	0.0419477
889.78	0.0430565
889.915	0.0427793
890.049	0.0422249
890.183	0.0421325
890.317	0.0420401
890.452	0.0414857
890.586	0.0426869
890.72	0.040839
890.854	0.0415781
890.989	0.0416705
891.123	0.0413933
891.257	0.0421325
891.391	0.0422249
891.526	0.0425021
891.66	0.0413933
891.794	0.0409313
891.928	0.0420401
892.063	0.0413009
892.197	0.0413933
892.331	0.0429641
892.465	0.0431488
892.6	0.0426869
892.734	0.0421325
892.868	0.0423173
893.002	0.0407466
893.137	0.0420401
893.271	0.0419477
893.405	0.0409313
893.539	0.0409313
893.674	0.0423173
893.808	0.0420401
893.942	0.0436108
894.076	0.0418553
894.21	0.0412085
894.345	0.0428717
894.479	0.0415781
894.613	0.0404694
894.747	0.0415781
894.882	0.0406542
895.016	0.0418553
895.15	0.0422249
895.284	0.0412085
895.419	0.0413933
895.553	0.0413933
895.687	0.0414857
895.821	0.0419477
895.956	0.0412085
896.09	0.0404694
896.224	0.0417629
896.358	0.0420401
896.492	0.0415781
896.627	0.0418553
896.761	0.0425021
896.895	0.0412085
897.029	0.0422249
897.164	0.0424097
897.298	0.0419477
897.432	0.0411161
897.566	0.0424097
897.701	0.0416705
897.835	0.0421325
897.969	0.0402846
898.103	0.0422249
898.237	0.0421325
898.372	0.0419477
898.506	0.0418553
898.64	0.0411161
898.774	0.0425945
898.909	0.0416705
899.043	0.0419477
899.177	0.0419477
899.311	0.0424097
899.445	0.0417629
899.58	0.0415781
899.714	0.0415781
899.848	0.0416705
899.982	0.0427793
900.117	0.0400074
900.251	0.0414857
900.385	0.0424097
900.519	0.0422249
900.653	0.0414857
900.788	0.0425021
900.922	0.0425021
901.056	0.0413009
901.19	0.0417629
901.325	0.0414857
901.459	0.0428717
901.593	0.0419477
901.727	0.0423173
901.861	0.0409313
901.996	0.0431488
902.13	0.0416705
902.264	0.0420401
902.398	0.0416705
902.532	0.0415781
902.667	0.0416705
902.801	0.0417629
902.935	0.0402846
903.069	0.0400074
903.204	0.0416705
903.338	0.0410237
903.472	0.0405618
903.606	0.0413009
903.74	0.0422249
903.875	0.040839
904.009	0.0407466
904.143	0.0417629
904.277	0.0425021
904.411	0.0427793
904.546	0.0432412
904.68	0.0417629
904.814	0.0421325
904.948	0.0411161
905.082	0.0432412
905.217	0.0404694
905.351	0.0423173
905.485	0.0420401
905.619	0.0424097
905.753	0.0428717
905.888	0.0425945
906.022	0.0415781
906.156	0.0411161
906.29	0.0419477
906.424	0.0421325
906.559	0.0424097
906.693	0.0423173
906.827	0.0406542
906.961	0.0420401
907.095	0.0422249
907.23	0.0413009
907.364	0.0397302
907.498	0.0424097
907.632	0.0418553
907.766	0.0413933
907.901	0.0400074
908.035	0.0423173
908.169	0.0410237
908.303	0.0410237
908.437	0.0418553
908.572	0.0427793
908.706	0.0405618
908.84	0.0419477
908.974	0.0421325
909.108	0.0422249
909.243	0.0411161
909.377	0.0415781
909.511	0.0425945
909.645	0.0409313
909.779	0.0409313
909.914	0.0421325
910.048	0.0417629
910.182	0.0420401
910.316	0.0417629
910.45	0.0422249
910.585	0.0405618
910.719	0.040839
910.853	0.0409313
910.987	0.0423173
911.121	0.0421325
911.255	0.0413933
911.39	0.0412085
911.524	0.0414857
911.658	0.0425945
911.792	0.0419477
911.926	0.0415781
912.061	0.0413009
912.195	0.0421325
912.329	0.0420401
912.463	0.0426869
912.597	0.0413009
912.732	0.0414857
912.866	0.0420401
913	0.0414857
913.134	0.0405618
913.268	0.0425945
913.402	0.0425021
913.537	0.0410237
913.671	0.0425021
913.805	0.0411161
913.939	0.0430565
914.073	0.0406542
914.208	0.0422249
914.342	0.0427793
914.476	0.0417629
914.61	0.0425021
914.744	0.040839
914.878	0.0422249
915.013	0.0413933
915.147	0.0424097
915.281	0.0414857
915.415	0.0428717
915.549	0.0422249
915.683	0.0407466
915.818	0.0421325
915.952	0.0402846
916.086	0.0427793
916.22	0.0424097
916.354	0.0401922
916.488	0.0423173
916.623	0.0413009
916.757	0.0416705
916.891	0.0417629
917.025	0.0432412
917.159	0.0433336
917.293	0.0413933
917.428	0.0415781
917.562	0.0424097
917.696	0.0412085
917.83	0.0419477
917.964	0.0414857
918.098	0.0412085
918.233	0.0415781
918.367	0.043426
918.501	0.0418553
918.635	0.0414857
918.769	0.0435184
918.903	0.0407466
919.038	0.0413009
919.172	0.0424097
919.306	0.0413933
919.44	0.0421325
919.574	0.0414857
919.708	0.0425021
919.843	0.0425945
919.977	0.0419477
920.111	0.0420401
920.245	0.0416705
920.379	0.0413933
920.513	0.0405618
920.648	0.0413933
920.782	0.0417629
920.916	0.0425945
921.05	0.040839
921.184	0.0422249
921.318	0.0425021
921.453	0.0424097
921.587	0.0406542
921.721	0.0415781
921.855	0.0423173
921.989	0.0416705
922.123	0.0409313
922.257	0.0409313
922.392	0.0426869
922.526	0.0411161
922.66	0.0421325
922.794	0.0413933
922.928	0.0421325
923.062	0.0423173
923.197	0.0423173
923.331	0.0404694
923.465	0.0415781
923.599	0.0419477
923.733	0.0413933
923.867	0.0407466
924.001	0.0421325
924.136	0.0413933
924.27	0.0418553
924.404	0.0413009
924.538	0.0402846
924.672	0.0425021
924.806	0.0425945
924.94	0.0426869
925.075	0.0424097
925.209	0.0423173
925.343	0.0422249
925.477	0.0427793
925.611	0.0413933
925.745	0.0425945
925.879	0.0415781
926.014	0.0415781
926.148	0.0416705
926.282	0.0428717
926.416	0.0421325
926.55	0.040839
926.684	0.0421325
926.818	0.0409313
926.953	0.0430565
927.087	0.0410237
927.221	0.0413933
927.355	0.0421325
927.489	0.0415781
927.623	0.0410237
927.757	0.0425021
927.892	0.0426869
928.026	0.0398226
928.16	0.0421325
928.294	0.0412085
928.428	0.0414857
928.562	0.0415781
928.696	0.040377
928.831	0.0423173
928.965	0.0413933
929.099	0.0425945
929.233	0.0416705
929.367	0.0427793
929.501	0.0425021
929.635	0.0431488
929.769	0.0413933
929.904	0.0413009
930.038	0.0421325
930.172	0.0417629
930.306	0.0428717
930.44	0.0419477
930.574	0.0410237
930.708	0.0413009
930.843	0.0413933
930.977	0.0412085
931.111	0.0420401
931.245	0.0412085
931.379	0.0416705
931.513	0.0425945
931.647	0.0418553
931.781	0.0419477
931.916	0.0409313
932.05	0.0426869
932.184	0.0396378
932.318	0.0426869
932.452	0.040839
932.586	0.0410237
932.72	0.0414857
932.854	0.0415781
932.989	0.0411161
933.123	0.0420401
933.257	0.0419477
933.391	0.0409313
933.525	0.0416705
933.659	0.0402846
933.793	0.0423173
933.927	0.0428717
934.061	0.0410237
934.196	0.0430565
934.33	0.0414857
934.464	0.0413009
934.598	0.0415781
934.732	0.0405618
934.866	0.0423173
935	0.0410237
935.134	0.0420401
935.269	0.0430565
935.403	0.0409313
935.537	0.0416705
935.671	0.0420401
935.805	0.0418553
935.939	0.0414857
936.073	0.0411161
936.207	0.0418553
936.341	0.0417629
936.476	0.0409313
936.61	0.0415781
936.744	0.0425021
936.878	0.0423173
937.012	0.0402846
937.146	0.0419477
937.28	0.0405618
937.414	0.0411161
937.548	0.0420401
937.683	0.0409313
937.817	0.0420401
937.951	0.0414857
938.085	0.0420401
938.219	0.0404694
938.353	0.0413933
938.487	0.0420401
938.621	0.0422249
938.755	0.0420401
938.889	0.0411161
939.024	0.0424097
939.158	0.040839
939.292	0.0419477
939.426	0.0427793
939.56	0.0400998
939.694	0.0417629
939.828	0.0425021
939.962	0.0411161
940.096	0.0420401
940.231	0.0419477
940.365	0.0414857
940.499	0.0413009
940.633	0.040839
940.767	0.0418553
940.901	0.0419477
941.035	0.0420401
941.169	0.0423173
941.303	0.0432412
941.437	0.0428717
941.571	0.0418553
941.706	0.0413009
941.84	0.0421325
941.974	0.0413009
942.108	0.0425945
942.242	0.0410237
942.376	0.0418553
942.51	0.0423173
942.644	0.0420401
942.778	0.0418553
942.912	0.0428717
943.047	0.0415781
943.181	0.0422249
943.315	0.0420401
943.449	0.0411161
943.583	0.0412085
943.717	0.0407466
943.851	0.0413009
943.985	0.0423173
944.119	0.0426869
944.253	0.0418553
944.387	0.0422249
944.522	0.0411161
944.656	0.0425021
944.79	0.0407466
944.924	0.0404694
945.058	0.0421325
945.192	0.0416705
945.326	0.0413009
945.46	0.0417629
945.594	0.0430565
945.728	0.0426869
945.862	0.0419477
945.996	0.0414857
946.131	0.0418553
946.265	0.0430565
946.399	0.0404694
946.533	0.039915
946.667	0.0413009
946.801	0.0417629
946.935	0.0406542
947.069	0.0414857
947.203	0.0413933
947.337	0.0425021
947.471	0.0429641
947.605	0.043426
947.739	0.0415781
947.874	0.0411161
948.008	0.0415781
948.142	0.0409313
948.276	0.0413933
948.41	0.0422249
948.544	0.0420401
948.678	0.0419477
948.812	0.040377
948.946	0.0413009
949.08	0.0409313
949.214	0.0409313
949.348	0.0423173
949.482	0.0413009
949.617	0.0428717
949.751	0.0418553
949.885	0.0419477
950.019	0.0419477
950.153	0.0423173
950.287	0.0414857
950.421	0.0425021
950.555	0.0420401
950.689	0.0415781
950.823	0.0435184
950.957	0.0413009
951.091	0.0415781
951.225	0.0417629
951.359	0.0412085
951.493	0.0427793
951.628	0.0430565
951.762	0.040839
951.896	0.0409313
952.03	0.0424097
952.164	0.0404694
952.298	0.0419477
952.432	0.0425945
952.566	0.0424097
952.7	0.0415781
952.834	0.0421325
952.968	0.0414857
953.102	0.0419477
953.236	0.0428717
953.37	0.0413009
953.504	0.0429641
953.639	0.0418553
953.773	0.0417629
953.907	0.040377
954.041	0.0426869
954.175	0.0430565
954.309	0.0425945
954.443	0.0414857
954.577	0.0416705
954.711	0.0417629
954.845	0.0409313
954.979	0.0417629
955.113	0.0413933
955.247	0.0422249
955.381	0.0416705
955.515	0.0414857
955.649	0.0415781
955.783	0.0405618
955.917	0.0419477
956.052	0.0422249
956.186	0.0425945
956.32	0.0432412
956.454	0.0410237
956.588	0.0416705
956.722	0.0409313
956.856	0.0417629
956.99	0.0411161
957.124	0.0413009
957.258	0.0418553
957.392	0.0413009
957.526	0.0415781
957.66	0.0428717
957.794	0.0415781
957.928	0.0412085
958.062	0.0427793
958.196	0.0410237
958.33	0.0421325
958.464	0.0422249
958.598	0.0405618
958.733	0.0422249
958.867	0.0420401
959.001	0.0416705
959.135	0.0406542
959.269	0.0415781
959.403	0.0415781
959.537	0.0420401
959.671	0.0426869
959.805	0.0421325
959.939	0.0414857
960.073	0.0414857
960.207	0.0410237
960.341	0.0415781
960.475	0.0425021
960.609	0.0410237
960.743	0.0415781
960.877	0.0415781
961.011	0.0420401
961.145	0.0406542
961.279	0.0431488
961.413	0.0406542
961.547	0.0425945
961.681	0.0409313
961.815	0.0413933
961.949	0.0413009
962.083	0.0427793
962.218	0.0419477
962.352	0.0423173
962.486	0.0419477
962.62	0.0395454
962.754	0.0416705
962.888	0.0405618
963.022	0.0409313
963.156	0.0420401
963.29	0.0411161
963.424	0.0413933
963.558	0.0416705
963.692	0.0426869
963.826	0.0419477
963.96	0.0413933
964.094	0.0426869
964.228	0.0402846
964.362	0.0416705
964.496	0.0426869
964.63	0.0413009
964.764	0.0410237
964.898	0.0421325
965.032	0.0410237
965.166	0.040839
965.3	0.0424097
965.434	0.0426869
965.568	0.0424097
965.702	0.0425021
965.836	0.0419477
965.97	0.0421325
966.104	0.0415781
966.238	0.0422249
966.372	0.0413933
966.506	0.0407466
966.64	0.0405618
966.774	0.0409313
966.908	0.0420401
967.043	0.0409313
967.177	0.0406542
967.311	0.0425945
967.445	0.0417629
967.579	0.0417629
967.713	0.0418553
967.847	0.0416705
967.981	0.0420401
968.115	0.0409313
968.249	0.0409313
968.383	0.0419477
968.517	0.0410237
968.651	0.0435184
968.785	0.0417629
968.919	0.0410237
969.053	0.040839
969.187	0.0413009
969.321	0.0412085
969.455	0.040377
969.589	0.0412085
969.723	0.0424097
969.857	0.0423173
969.991	0.0425945
970.125	0.0413933
970.259	0.0413009
970.393	0.0420401
970.527	0.0425945
970.661	0.0428717
970.795	0.0410237
970.929	0.0415781
971.063	0.0405618
971.197	0.0420401
971.331	0.0427793
971.465	0.0412085
971.599	0.0418553
971.733	0.0421325
971.867	0.0415781
972.001	0.0416705
972.135	0.0409313
972.269	0.0424097
972.403	0.0411161
972.537	0.0426869
972.671	0.0405618
972.805	0.040839
972.939	0.0423173
973.073	0.0413009
973.207	0.040839
973.341	0.0429641
973.475	0.0419477
973.609	0.0420401
973.743	0.0420401
973.877	0.0413933
974.011	0.0423173
974.145	0.0422249
974.279	0.0416705
974.413	0.0413009
974.547	0.0426869
974.681	0.0423173
974.815	0.0423173
974.949	0.043888
975.083	0.0424097
975.217	0.0425021
975.351	0.0433336
975.485	0.0420401
975.619	0.0412085
975.753	0.0407466
975.887	0.0409313
976.021	0.0420401
976.155	0.0417629
976.289	0.0413933
976.423	0.0428717
976.557	0.0420401
976.691	0.0416705
976.825	0.0416705
976.959	0.0409313
977.093	0.0423173
977.227	0.0423173
977.361	0.0410237
977.495	0.0418553
977.629	0.0416705
977.763	0.0412085
977.897	0.0410237
978.031	0.0427793
978.165	0.0413009
978.299	0.0412085
978.433	0.0420401
978.567	0.0419477
978.701	0.0418553
978.835	0.0419477
978.969	0.0426869
979.103	0.0415781
979.237	0.0425945
979.371	0.0404694
979.505	0.0415781
979.639	0.0429641
979.773	0.0418553
979.907	0.0422249
980.041	0.0410237
980.175	0.0404694
980.308	0.0421325
980.442	0.0421325
980.576	0.0409313
980.71	0.0404694
980.844	0.0409313
980.978	0.0419477
981.112	0.0421325
981.246	0.0431488
981.38	0.0410237
981.514	0.0411161
981.648	0.0416705
981.782	0.0410237
981.916	0.043426
982.05	0.0407466
982.184	0.0422249
982.318	0.0421325
982.452	0.0436108
982.586	0.0410237
982.72	0.0421325
982.854	0.0413933
982.988	0.0412085
983.122	0.0424097
983.256	0.0433336
983.39	0.0411161
983.524	0.0406542
983.658	0.0410237
983.792	0.0422249
983.926	0.0416705
984.06	0.0412085
984.194	0.040377
984.328	0.040839
984.462	0.0414857
984.596	0.0406542
984.73	0.0407466
984.864	0.0422249
984.998	0.0413933
985.132	0.0418553
985.265	0.0420401
985.399	0.0419477
985.533	0.0406542
985.667	0.0425945
985.801	0.0425945
985.935	0.040839
986.069	0.0426869
986.203	0.0398226
986.337	0.0415781
986.471	0.0406542
986.605	0.0405618
986.739	0.0409313
986.873	0.0418553
987.007	0.0401922
987.141	0.0429641
987.275	0.0415781
987.409	0.0420401
987.543	0.0415781
987.677	0.0420401
987.811	0.0417629
987.945	0.0416705
988.079	0.0426869
988.213	0.0401922
988.347	0.0427793
988.481	0.0417629
988.614	0.0421325
988.748	0.0409313
988.882	0.0418553
989.016	0.0414857
989.15	0.0422249
989.284	0.0419477
989.418	0.0421325
989.552	0.0428717
989.686	0.0414857
989.82	0.0418553
989.954	0.0425021
990.088	0.0418553
990.222	0.0427793
990.356	0.0412085
990.49	0.0415781
990.624	0.0409313
990.758	0.0420401
990.892	0.0419477
991.026	0.0419477
991.16	0.0407466
991.294	0.0428717
991.427	0.0401922
991.561	0.0420401
991.695	0.0417629
991.829	0.0407466
991.963	0.0432412
992.097	0.0412085
992.231	0.0415781
992.365	0.0420401
992.499	0.0410237
992.633	0.0415781
992.767	0.0405618
992.901	0.0417629
993.035	0.0431488
993.169	0.0421325
993.303	0.0433336
993.437	0.0421325
993.571	0.0412085
993.704	0.0412085
993.838	0.0417629
993.972	0.0413009
994.106	0.0409313
994.24	0.0416705
994.374	0.0423173
994.508	0.0420401
994.642	0.0428717
994.776	0.0413009
994.91	0.0433336
995.044	0.0414857
995.178	0.0424097
995.312	0.0418553
995.446	0.0420401
995.58	0.0419477
995.714	0.0425945
995.847	0.0424097
995.981	0.0430565
996.115	0.0412085
996.249	0.0401922
996.383	0.0413933
996.517	0.0430565
996.651	0.0421325
996.785	0.0424097
996.919	0.0398226
997.053	0.0417629
997.187	0.0424097
997.321	0.0429641
997.455	0.0410237
997.589	0.0409313
997.722	0.0419477
997.856	0.0426869
997.99	0.0415781
998.124	0.0412085
998.258	0.0420401
998.392	0.0427793
998.526	0.0414857
998.66	0.0406542
998.794	0.0417629
998.928	0.0422249
999.062	0.0415781
999.196	0.040839
999.33	0.0424097
999.464	0.0421325
999.597	0.0429641
999.731	0.0424097
999.865	0.0427793
999.999	0.0409313
1000.13	0.0426869
1000.27	0.0414857
1000.4	0.0425021
1000.53	0.0409313
1000.67	0.0418553
1000.8	0.0422249
1000.94	0.0413009
1001.07	0.0425021
1001.2	0.0411161
1001.34	0.0416705
1001.47	0.0409313
1001.61	0.0414857
1001.74	0.0423173
1001.87	0.0411161
1002.01	0.0412085
1002.14	0.0419477
1002.28	0.0422249
1002.41	0.0413009
1002.54	0.0411161
1002.68	0.0420401
1002.81	0.0423173
1002.95	0.0416705
1003.08	0.0417629
1003.21	0.0413009
1003.35	0.0413009
1003.48	0.0425021
1003.61	0.0420401
1003.75	0.0407466
1003.88	0.0413933
1004.02	0.0412085
1004.15	0.0425945
1004.28	0.0412085
1004.42	0.0430565
1004.55	0.0428717
1004.69	0.0425021
1004.82	0.0428717
1004.95	0.0410237
1005.09	0.0417629
1005.22	0.0410237
1005.36	0.0411161
1005.49	0.0421325
1005.62	0.0423173
1005.76	0.0415781
1005.89	0.0413933
1006.03	0.0413933
1006.16	0.0418553
1006.29	0.0416705
1006.43	0.0427793
1006.56	0.0405618
1006.69	0.0427793
1006.83	0.0418553
1006.96	0.0414857
1007.1	0.0416705
1007.23	0.0411161
1007.36	0.0431488
1007.5	0.0413009
1007.63	0.0418553
1007.77	0.0426869
1007.9	0.0425945
1008.03	0.0411161
1008.17	0.0415781
1008.3	0.0410237
1008.44	0.0419477
1008.57	0.0415781
1008.7	0.0420401
1008.84	0.0416705
1008.97	0.0420401
1009.1	0.0413009
1009.24	0.0410237
1009.37	0.0431488
1009.51	0.0419477
1009.64	0.0406542
1009.77	0.0406542
1009.91	0.0422249
1010.04	0.0405618
1010.18	0.040839
1010.31	0.0419477
1010.44	0.0422249
1010.58	0.0424097
1010.71	0.0412085
1010.85	0.0423173
1010.98	0.0409313
1011.11	0.0405618
1011.25	0.0414857
1011.38	0.0415781
1011.51	0.0400074
1011.65	0.0420401
1011.78	0.0422249
1011.92	0.0413933
1012.05	0.0415781
1012.18	0.0427793
1012.32	0.0419477
1012.45	0.0422249
1012.59	0.0415781
1012.72	0.0413009
1012.85	0.040377
1012.99	0.0422249
1013.12	0.0413009
1013.26	0.0421325
1013.39	0.0421325
1013.52	0.0422249
1013.66	0.0425021
1013.79	0.0413009
1013.92	0.0411161
1014.06	0.0423173
1014.19	0.0405618
1014.33	0.0388986
1014.46	0.0415781
1014.59	0.0426869
1014.73	0.0413933
1014.86	0.0423173
1015	0.0415781
1015.13	0.0401922
1015.26	0.0418553
1015.4	0.0414857
1015.53	0.0414857
1015.67	0.0431488
1015.8	0.0420401
1015.93	0.0417629
1016.07	0.0417629
1016.2	0.040839
1016.33	0.0413009
1016.47	0.0419477
1016.6	0.0416705
1016.74	0.0423173
1016.87	0.0431488
1017	0.0424097
1017.14	0.0413009
1017.27	0.0416705
1017.41	0.0413933
1017.54	0.0426869
1017.67	0.0420401
1017.81	0.0423173
1017.94	0.0422249
1018.07	0.0422249
1018.21	0.0398226
1018.34	0.0418553
1018.48	0.0404694
1018.61	0.0429641
1018.74	0.0411161
1018.88	0.0407466
1019.01	0.0421325
1019.15	0.0416705
1019.28	0.0413933
1019.41	0.0430565
1019.55	0.0413009
1019.68	0.0405618
1019.82	0.0425945
1019.95	0.0420401
1020.08	0.0416705
1020.22	0.0402846
1020.35	0.0417629
1020.48	0.0420401
1020.62	0.0405618
1020.75	0.0419477
1020.89	0.0413933
1021.02	0.0415781
1021.15	0.0417629
1021.29	0.0424097
1021.42	0.0422249
1021.56	0.0428717
1021.69	0.0411161
1021.82	0.0429641
1021.96	0.0415781
1022.09	0.0413009
1022.22	0.0412085
1022.36	0.0425945
1022.49	0.0405618
1022.63	0.0419477
1022.76	0.0418553
1022.89	0.0419477
1023.03	0.0420401
1023.16	0.0426869
1023.3	0.0417629
1023.43	0.0414857
1023.56	0.0418553
1023.7	0.0420401
1023.83	0.0412085
1023.96	0.0430565
1024.1	0.0413933
1024.23	0.0419477
1024.37	0.0418553
1024.5	0.0420401
1024.63	0.0420401
1024.77	0.0419477
1024.9	0.0423173
1025.04	0.0426869
1025.17	0.0430565
1025.3	0.0417629
1025.44	0.0413933
1025.57	0.0430565
1025.7	0.0423173
1025.84	0.0417629
1025.97	0.0405618
1026.11	0.0413009
1026.24	0.0410237
1026.37	0.0413009
1026.51	0.0417629
1026.64	0.0429641
1026.78	0.0412085
1026.91	0.0411161
1027.04	0.0401922
1027.18	0.0426869
1027.31	0.0402846
1027.44	0.0425945
1027.58	0.0402846
1027.71	0.0421325
1027.85	0.0419477
1027.98	0.0412085
1028.11	0.0406542
1028.25	0.0407466
1028.38	0.0425021
1028.52	0.0431488
1028.65	0.0416705
1028.78	0.0425021
1028.92	0.040839
1029.05	0.0415781
1029.18	0.0410237
1029.32	0.0405618
1029.45	0.0413933
1029.59	0.0413009
1029.72	0.0412085
1029.85	0.0418553
1029.99	0.0418553
1030.12	0.0419477
1030.26	0.0420401
1030.39	0.0400074
1030.52	0.0416705
1030.66	0.0409313
1030.79	0.0410237
1030.92	0.0416705
1031.06	0.0422249
1031.19	0.0421325
1031.33	0.0423173
1031.46	0.0410237
1031.59	0.0425021
1031.73	0.043426
1031.86	0.0409313
1031.99	0.0415781
1032.13	0.0419477
1032.26	0.0418553
1032.4	0.0401922
1032.53	0.0417629
1032.66	0.0417629
1032.8	0.0402846
1032.93	0.0419477
1033.07	0.0429641
1033.2	0.0402846
1033.33	0.0410237
1033.47	0.0428717
1033.6	0.0423173
1033.73	0.0404694
1033.87	0.0423173
1034	0.0431488
1034.14	0.0416705
1034.27	0.0423173
1034.4	0.0412085
1034.54	0.043888
1034.67	0.0409313
1034.81	0.0423173
1034.94	0.0421325
1035.07	0.0436108
1035.21	0.0411161
1035.34	0.0426869
1035.47	0.0412085
1035.61	0.0422249
1035.74	0.0412085
1035.88	0.0419477
1036.01	0.0425945
1036.14	0.0412085
1036.28	0.0425021
1036.41	0.0423173
1036.54	0.0412085
1036.68	0.0405618
1036.81	0.040839
1036.95	0.0421325
1037.08	0.0417629
1037.21	0.0413933
1037.35	0.0433336
1037.48	0.0415781
1037.62	0.0422249
1037.75	0.0419477
1037.88	0.0427793
1038.02	0.0413009
1038.15	0.0419477
1038.28	0.0402846
1038.42	0.0405618
1038.55	0.0420401
1038.69	0.0413933
1038.82	0.0423173
1038.95	0.0421325
1039.09	0.0411161
1039.22	0.0431488
1039.35	0.0417629
1039.49	0.0409313
1039.62	0.0413009
1039.76	0.0429641
1039.89	0.0426869
1040.02	0.0425021
1040.16	0.0419477
1040.29	0.0407466
1040.43	0.0431488
1040.56	0.0423173
1040.69	0.0418553
1040.83	0.0427793
1040.96	0.0421325
1041.09	0.0423173
1041.23	0.0427793
1041.36	0.0413009
1041.5	0.0435184
1041.63	0.0415781
1041.76	0.0425945
1041.9	0.0413933
1042.03	0.0416705
1042.16	0.0415781
1042.3	0.0432412
1042.43	0.0406542
1042.57	0.0424097
1042.7	0.0419477
1042.83	0.0405618
1042.97	0.0415781
1043.1	0.0417629
1043.23	0.0409313
1043.37	0.0409313
1043.5	0.0419477
1043.64	0.0418553
1043.77	0.0420401
1043.9	0.0414857
1044.04	0.0415781
1044.17	0.0412085
1044.31	0.0415781
1044.44	0.0426869
1044.57	0.0414857
1044.71	0.0415781
1044.84	0.0415781
1044.97	0.0414857
1045.11	0.0410237
1045.24	0.0413933
1045.38	0.0415781
1045.51	0.0405618
1045.64	0.0420401
1045.78	0.0412085
1045.91	0.0420401
1046.04	0.0427793
1046.18	0.0421325
1046.31	0.0404694
1046.45	0.0418553
1046.58	0.0415781
1046.71	0.0412085
1046.85	0.0416705
1046.98	0.040839
1047.11	0.0424097
1047.25	0.0415781
1047.38	0.0414857
1047.52	0.0425945
1047.65	0.0416705
1047.78	0.0419477
1047.92	0.0426869
1048.05	0.0415781
1048.18	0.0414857
1048.32	0.0435184
1048.45	0.0411161
1048.59	0.0425945
1048.72	0.040377
1048.85	0.0426869
1048.99	0.0414857
1049.12	0.0415781
1049.25	0.0412085
1049.39	0.0425021
1049.52	0.040839
1049.66	0.0406542
1049.79	0.0431488
1049.92	0.0416705
1050.06	0.0411161
1050.19	0.0419477
1050.33	0.0406542
1050.46	0.0422249
1050.59	0.0419477
1050.73	0.0406542
1050.86	0.0418553
1050.99	0.0421325
1051.13	0.0416705
1051.26	0.0414857
1051.4	0.039915
1051.53	0.0421325
1051.66	0.0425021
1051.8	0.0411161
1051.93	0.0413933
1052.06	0.0413009
1052.2	0.0417629
1052.33	0.0428717
1052.47	0.0415781
1052.6	0.0417629
1052.73	0.0412085
1052.87	0.0413933
1053	0.0429641
1053.13	0.0407466
1053.27	0.0416705
1053.4	0.0419477
1053.54	0.0426869
1053.67	0.0412085
1053.8	0.0417629
1053.94	0.0420401
1054.07	0.0410237
1054.2	0.0425945
1054.34	0.0431488
1054.47	0.0413009
1054.61	0.0422249
1054.74	0.0418553
1054.87	0.0423173
1055.01	0.0418553
1055.14	0.0406542
1055.27	0.0424097
1055.41	0.0417629
1055.54	0.0421325
1055.68	0.0409313
1055.81	0.0421325
1055.94	0.0407466
1056.08	0.0421325
1056.21	0.0417629
1056.34	0.039915
1056.48	0.0417629
1056.61	0.0413009
1056.75	0.0424097
1056.88	0.040839
1057.01	0.0426869
1057.15	0.0420401
1057.28	0.0429641
1057.41	0.0427793
1057.55	0.0427793
1057.68	0.0431488
1057.82	0.0421325
1057.95	0.0414857
1058.08	0.0424097
1058.22	0.0427793
1058.35	0.0413009
1058.48	0.0419477
1058.62	0.0427793
1058.75	0.0420401
1058.89	0.0421325
1059.02	0.0425021
1059.15	0.0418553
1059.29	0.0406542
1059.42	0.0412085
1059.55	0.0420401
1059.69	0.0429641
1059.82	0.0425021
1059.96	0.0414857
1060.09	0.0405618
1060.22	0.0416705
1060.36	0.0413933
1060.49	0.0411161
1060.62	0.0416705
1060.76	0.0407466
1060.89	0.0417629
1061.03	0.0411161
1061.16	0.0414857
1061.29	0.0431488
1061.43	0.0425021
1061.56	0.0419477
1061.69	0.0421325
1061.83	0.0416705
1061.96	0.0420401
1062.1	0.0422249
1062.23	0.0419477
1062.36	0.0422249
1062.5	0.0417629
1062.63	0.040839
1062.76	0.0404694
1062.9	0.0414857
1063.03	0.0420401
1063.17	0.0423173
1063.3	0.0419477
1063.43	0.0425945
1063.57	0.0428717
1063.7	0.040839
1063.83	0.0419477
1063.97	0.0421325
1064.1	0.0421325
1064.23	0.0415781
1064.37	0.0425021
1064.5	0.0417629
1064.64	0.0427793
1064.77	0.0419477
1064.9	0.0417629
1065.04	0.0404694
1065.17	0.040377
1065.3	0.0421325
1065.44	0.0396378
1065.57	0.0400074
1065.71	0.0414857
1065.84	0.0418553
1065.97	0.0424097
1066.11	0.0422249
1066.24	0.0419477
1066.37	0.0424097
1066.51	0.0420401
1066.64	0.0421325
1066.78	0.0415781
1066.91	0.0416705
1067.04	0.0418553
1067.18	0.040377
1067.31	0.043426
1067.44	0.0424097
1067.58	0.0415781
1067.71	0.0415781
1067.85	0.0424097
1067.98	0.0413009
1068.11	0.0411161
1068.25	0.0425021
1068.38	0.0412085
1068.51	0.0427793
1068.65	0.0427793
1068.78	0.0407466
1068.92	0.0425021
1069.05	0.0417629
1069.18	0.0419477
1069.32	0.0418553
1069.45	0.0411161
1069.58	0.0420401
1069.72	0.0412085
1069.85	0.0420401
1069.98	0.0417629
1070.12	0.0411161
1070.25	0.040839
1070.39	0.0412085
1070.52	0.0429641
1070.65	0.0406542
1070.79	0.0415781
1070.92	0.0423173
1071.05	0.0430565
1071.19	0.0413933
1071.32	0.0413933
1071.46	0.0420401
1071.59	0.0426869
1071.72	0.0413933
1071.86	0.0437032
1071.99	0.0411161
1072.12	0.0419477
1072.26	0.0426869
1072.39	0.0407466
1072.53	0.0404694
1072.66	0.0413009
1072.79	0.0411161
1072.93	0.0416705
1073.06	0.0417629
1073.19	0.0417629
1073.33	0.0419477
1073.46	0.0419477
1073.59	0.0411161
1073.73	0.0429641
1073.86	0.0415781
1074	0.0414857
1074.13	0.0395454
1074.26	0.0422249
1074.4	0.0442576
1074.53	0.0409313
1074.66	0.0417629
1074.8	0.043426
1074.93	0.040377
1075.07	0.0412085
1075.2	0.0421325
1075.33	0.0417629
1075.47	0.0414857
1075.6	0.0418553
1075.73	0.0416705
1075.87	0.0421325
1076	0.0418553
1076.14	0.0402846
1076.27	0.0411161
1076.4	0.0418553
1076.54	0.0418553
1076.67	0.0425945
1076.8	0.0425021
1076.94	0.0410237
1077.07	0.0405618
1077.2	0.0409313
1077.34	0.0404694
1077.47	0.0429641
1077.61	0.0426869
1077.74	0.0426869
1077.87	0.0412085
1078.01	0.0425945
1078.14	0.0416705
1078.27	0.0425021
1078.41	0.0420401
1078.54	0.0422249
1078.68	0.0397302
1078.81	0.0415781
1078.94	0.0428717
1079.08	0.0418553
1079.21	0.0416705
1079.34	0.0404694
1079.48	0.0417629
1079.61	0.0418553
1079.74	0.0425021
1079.88	0.0409313
1080.01	0.0418553
1080.15	0.043426
1080.28	0.0418553
1080.41	0.0414857
1080.55	0.0420401
1080.68	0.0420401
1080.81	0.0406542
1080.95	0.0416705
1081.08	0.0405618
1081.22	0.0409313
1081.35	0.0421325
1081.48	0.0422249
1081.62	0.0427793
1081.75	0.039915
1081.88	0.0420401
1082.02	0.0421325
1082.15	0.0427793
1082.28	0.0426869
1082.42	0.0428717
1082.55	0.0413933
1082.69	0.0419477
1082.82	0.0420401
1082.95	0.0409313
1083.09	0.0423173
1083.22	0.0415781
1083.35	0.0419477
1083.49	0.0427793
1083.62	0.0420401
1083.75	0.0428717
1083.89	0.0411161
1084.02	0.0417629
1084.16	0.0413933
1084.29	0.0420401
1084.42	0.0419477
1084.56	0.040839
1084.69	0.0417629
1084.82	0.0422249
1084.96	0.0409313
1085.09	0.0411161
1085.23	0.0412085
1085.36	0.0400074
1085.49	0.0413933
1085.63	0.0413009
1085.76	0.0412085
1085.89	0.0430565
1086.03	0.0413933
1086.16	0.0418553
1086.29	0.0422249
1086.43	0.0414857
1086.56	0.0428717
1086.7	0.0410237
1086.83	0.0414857
1086.96	0.0419477
1087.1	0.0418553
1087.23	0.0430565
1087.36	0.0429641
1087.5	0.0421325
1087.63	0.0425945
1087.76	0.0428717
1087.9	0.0416705
1088.03	0.0414857
1088.17	0.0424097
1088.3	0.0416705
1088.43	0.0416705
1088.57	0.0413009
1088.7	0.0409313
1088.83	0.0413933
1088.97	0.0417629
1089.1	0.0406542
1089.24	0.0413933
1089.37	0.0397302
1089.5	0.0415781
1089.64	0.0422249
1089.77	0.0413009
1089.9	0.0413009
1090.04	0.0428717
1090.17	0.0425021
1090.3	0.0422249
1090.44	0.0422249
1090.57	0.0424097
1090.71	0.0422249
1090.84	0.0420401
1090.97	0.0420401
1091.11	0.0411161
1091.24	0.0423173
1091.37	0.0407466
1091.51	0.0424097
1091.64	0.0422249
1091.77	0.0428717
1091.91	0.0412085
1092.04	0.0413009
1092.18	0.0423173
1092.31	0.0427793
1092.44	0.0433336
1092.58	0.0419477
1092.71	0.0412085
1092.84	0.0419477
1092.98	0.0414857
1093.11	0.0414857
1093.24	0.0412085
1093.38	0.0423173
1093.51	0.0416705
1093.65	0.0420401
1093.78	0.0416705
1093.91	0.0413933
1094.05	0.0421325
1094.18	0.0414857
1094.31	0.0423173
1094.45	0.0418553
1094.58	0.0429641
1094.71	0.0420401
1094.85	0.0425021
1094.98	0.0409313
1095.12	0.0417629
1095.25	0.0423173
1095.38	0.0426869
1095.52	0.0419477
1095.65	0.0425945
1095.78	0.0402846
1095.92	0.0428717
1096.05	0.0423173
1096.18	0.0418553
1096.32	0.0420401
1096.45	0.0415781
1096.59	0.0421325
1096.72	0.0413933
1096.85	0.0413933
1096.99	0.0425021
1097.12	0.0426869
1097.25	0.0416705
1097.39	0.0414857
1097.52	0.0415781
1097.65	0.0420401
1097.79	0.0419477
1097.92	0.0426869
1098.06	0.0418553
1098.19	0.0424097
1098.32	0.0414857
1098.46	0.0423173
1098.59	0.0425021
1098.72	0.0416705
1098.86	0.0414857
1098.99	0.0425021
1099.12	0.0412085
1099.26	0.0424097
1099.39	0.0416705
1099.53	0.0416705
1099.66	0.0409313
1099.79	0.0413009
1099.93	0.0419477
1100.06	0.0425945
1100.19	0.0407466
1100.33	0.0410237
1100.46	0.0413009
1100.59	0.0411161
1100.73	0.0405618
1100.86	0.0416705
1100.99	0.0414857
1101.13	0.0410237
1101.26	0.0415781
1101.4	0.0420401
1101.53	0.0422249
1101.66	0.0423173
1101.8	0.040377
1101.93	0.0419477
1102.06	0.0415781
1102.2	0.0417629
1102.33	0.0427793
1102.46	0.0407466
1102.6	0.0415781
1102.73	0.0423173
1102.87	0.0412085
1103	0.0413009
1103.13	0.0422249
1103.27	0.0405618
1103.4	0.0410237
1103.53	0.0425021
1103.67	0.0418553
1103.8	0.0425945
1103.93	0.039915
1104.07	0.0426869
1104.2	0.0429641
1104.34	0.0411161
1104.47	0.0418553
1104.6	0.0417629
1104.74	0.0429641
1104.87	0.0412085
1105	0.0424097
1105.14	0.0401922
1105.27	0.0412085
1105.4	0.0425945
1105.54	0.0417629
1105.67	0.0415781
1105.8	0.0418553
1105.94	0.0407466
1106.07	0.0426869
1106.21	0.0415781
1106.34	0.0423173
1106.47	0.0414857
1106.61	0.0429641
1106.74	0.0426869
1106.87	0.0413009
1107.01	0.0405618
1107.14	0.0423173
1107.27	0.0416705
1107.41	0.0411161
1107.54	0.0421325

